// General information: 
//  MT Manager version: 2021.2.0 
//  XDA version: 2021.2.0 build 6101 rev 111201 built on 2021-07-13
// Device information: 
//  DeviceId: 0080001028
//  ProductCode: MTi-670-8A1G6
//  Firmware Version: 1.0.0
//  Hardware Version: 1.0.0
// Device settings: 
//  Filter Profile: General(21.2)
//  Option Flags: Orientation Smoother Disabled, Position/Velocity Smoother Disabled, Continuous Zero Rotation Update Disabled, AHS Disabled, ICC Disabled
// Coordinate system: ENU
PacketCounter	SampleTimeFine	UTC_Nano	UTC_Year	UTC_Month	UTC_Day	UTC_Hour	UTC_Minute	UTC_Second	UTC_Valid	Acc_X	Acc_Y	Acc_Z	FreeAcc_E	FreeAcc_N	FreeAcc_U	Gyr_X	Gyr_Y	Gyr_Z	Mag_X	Mag_Y	Mag_Z	Quat_q0	Quat_q1	Quat_q2	Quat_q3	Roll	Pitch	Yaw
39533	7673711	527653000	2023	11	20	4	2	15	0	-6.835166	-1.423860	-6.883721	-0.026808	0.013697	-0.008012	-0.002444	-0.000225	0.003099				-0.273816	0.770817	-0.507504	-0.270750	-168.172322	44.053003	-61.922249
39534	7673736	530153000	2023	11	20	4	2	15	0	-6.829718	-1.446319	-6.871857	-0.005655	0.026039	-0.016839	-0.001083	-0.000831	0.003099	0.427478	-0.069713	-0.332120	-0.273812	0.770817	-0.507505	-0.270753	-168.173022	44.053056	-61.922616
39535	7673761	532653000	2023	11	20	4	2	15	0	-6.822811	-1.438378	-6.885000	-0.008894	0.009871	-0.013566	0.001211	-0.000004	0.002716				-0.273811	0.770817	-0.507506	-0.270753	-168.173360	44.052978	-61.922936
39536	7673786	535153000	2023	11	20	4	2	15	0	-6.821206	-1.412212	-6.893826	-0.031430	-0.006291	-0.012329	0.001367	-0.003873	0.002167				-0.273816	0.770813	-0.507507	-0.270757	-168.173001	44.053725	-61.923090
39537	7673811	537653000	2023	11	20	4	2	15	0	-6.845145	-1.422272	-6.880297	-0.032199	0.021898	-0.003720	0.003975	0.002966	0.002005				-0.273815	0.770813	-0.507510	-0.270752	-168.172936	44.053210	-61.923394
39538	7673836	540153000	2023	11	20	4	2	15	0	-6.846729	-1.419694	-6.883048	-0.034542	0.020072	-0.001063	-0.002876	-0.002050	0.000905	0.431369	-0.069625	-0.333592	-0.273812	0.770814	-0.507507	-0.270756	-168.173563	44.053360	-61.923293
39539	7673861	542653000	2023	11	20	4	2	15	0	-6.820600	-1.425295	-6.884849	-0.020287	0.004216	-0.017141	0.001683	0.001072	0.002813				-0.273809	0.770814	-0.507509	-0.270755	-168.173880	44.053133	-61.923682
39540	7673886	545153000	2023	11	20	4	2	15	0	-6.815925	-1.438454	-6.880660	-0.007000	0.008696	-0.021397	-0.001045	0.002242	0.001573				-0.273804	0.770817	-0.507507	-0.270756	-168.174388	44.052870	-61.923454
39541	7673911	547653000	2023	11	20	4	2	15	0	-6.829842	-1.432746	-6.879309	-0.017191	0.016738	-0.013512	-0.003146	0.003692	0.000042				-0.273797	0.770821	-0.507506	-0.270754	-168.175102	44.052199	-61.923412
39542	7673936	550153000	2023	11	20	4	2	15	0	-6.811807	-1.433641	-6.884567	-0.009685	0.001941	-0.022220	0.003061	0.002932	-0.000094	0.427942	-0.069182	-0.334057	-0.273796	0.770823	-0.507506	-0.270750	-168.174881	44.051632	-61.923307
39543	7673961	552653000	2023	11	20	4	2	15	0	-6.829744	-1.420412	-6.884004	-0.028060	0.009478	-0.012091	-0.000900	0.004046	0.001305				-0.273790	0.770826	-0.507507	-0.270747	-168.175450	44.050945	-61.923522
39544	7673986	555153000	2023	11	20	4	2	15	0	-6.820027	-1.428912	-6.881299	-0.017587	0.008172	-0.019501	0.003777	0.004464	-0.000250				-0.273792	0.770828	-0.507511	-0.270731	-168.174305	44.049438	-61.923500
39545	7674011	557653000	2023	11	20	4	2	15	0	-6.802887	-1.423322	-6.874287	-0.018089	0.000404	-0.037176	0.004556	0.004447	-0.000256				-0.273792	0.770830	-0.507512	-0.270724	-168.173891	44.048648	-61.923431
39546	7674036	560153000	2023	11	20	4	2	15	0	-6.803559	-1.440284	-6.874305	-0.002343	0.006432	-0.034196	-0.002594	-0.001593	-0.001046	0.429946	-0.072102	-0.333638	-0.273788	0.770832	-0.507508	-0.270727	-168.174227	44.048683	-61.922969
39547	7674061	562653000	2023	11	20	4	2	15	0	-6.802392	-1.436647	-6.873270	-0.005761	0.005185	-0.036272	0.005142	0.000837	-0.002320				-0.273791	0.770834	-0.507506	-0.270722	-168.173346	44.048340	-61.922344
39548	7674086	565153000	2023	11	20	4	2	15	0	-6.807116	-1.432797	-6.876396	-0.010041	0.004820	-0.031355	-0.002663	0.000788	0.004489				-0.273783	0.770835	-0.507504	-0.270732	-168.175070	44.048848	-61.922742
39549	7674111	567653000	2023	11	20	4	2	15	0	-6.816286	-1.464813	-6.865962	0.015027	0.028822	-0.027606	-0.000073	0.004634	0.000323				-0.273778	0.770838	-0.507505	-0.270728	-168.175409	44.048048	-61.922804
39550	7674136	570153000	2023	11	20	4	2	15	0	-6.801608	-1.444223	-6.873374	0.001814	0.007171	-0.035626	0.004502	-0.002956	0.000205	0.430385	-0.068676	-0.332596	-0.273782	0.770837	-0.507504	-0.270728	-168.174862	44.048309	-61.922522
39551	7674161	572653000	2023	11	20	4	2	15	0	-6.816131	-1.441028	-6.883155	-0.004465	0.008494	-0.019121	-0.001657	-0.003953	0.002357				-0.273780	0.770837	-0.507503	-0.270734	-168.175456	44.048774	-61.922624
39552	7674186	575153000	2023	11	20	4	2	15	0	-6.806775	-1.439996	-6.873599	-0.003608	0.008755	-0.032499	-0.001268	-0.003564	0.001771				-0.273785	0.770833	-0.507504	-0.270736	-168.175016	44.049427	-61.922792
39553	7674211	577653000	2023	11	20	4	2	15	0	-6.837262	-1.438459	-6.863217	-0.016707	0.034954	-0.018831	-0.001617	-0.000052	0.003489				-0.273781	0.770833	-0.507506	-0.270738	-168.175864	44.049383	-61.923260
39554	7674236	580153000	2023	11	20	4	2	15	0	-6.822134	-1.421479	-6.872314	-0.026060	0.013489	-0.025450	-0.003293	0.001723	0.002087	0.429950	-0.072110	-0.333152	-0.273774	0.770835	-0.507506	-0.270739	-168.176817	44.049044	-61.923537
39555	7674261	582653000	2023	11	20	4	2	15	0	-6.804298	-1.445708	-6.878847	0.003259	0.005798	-0.029687	0.003272	0.003111	0.001382				-0.273772	0.770836	-0.507508	-0.270735	-168.176772	44.048491	-61.923729
39556	7674286	585153000	2023	11	20	4	2	15	0	-6.818059	-1.413000	-6.885257	-0.030590	-0.000735	-0.020429	-0.001335	-0.000824	0.003514				-0.273757	0.770838	-0.507510	-0.270739	-168.179085	44.047975	-61.924809
39557	7674311	587653000	2023	11	20	4	2	15	0	-6.797997	-1.452476	-6.872970	0.011140	0.008308	-0.037209	0.000928	-0.000842	0.000565				-0.273756	0.770839	-0.507509	-0.270739	-168.179158	44.047952	-61.924690
39558	7674336	590153000	2023	11	20	4	2	15	0	-6.815072	-1.403264	-6.872967	-0.040443	0.002715	-0.032585	-0.001718	-0.000185	-0.001931	0.427538	-0.073630	-0.332688	-0.273753	0.770842	-0.507505	-0.270740	-168.179290	44.047760	-61.924115
39559	7674361	592653000	2023	11	20	4	2	15	0	-6.802307	-1.441104	-6.877135	-0.000236	0.004433	-0.032958	0.000118	-0.000089	0.002538				-0.273751	0.770842	-0.507505	-0.270741	-168.179760	44.047685	-61.924404
39560	7674386	595153000	2023	11	20	4	2	15	0	-6.804663	-1.436280	-6.887440	-0.004363	-0.002877	-0.024779	0.002692	0.002172	-0.001416				-0.273755	0.770846	-0.507500	-0.270736	-168.178560	44.047393	-61.923154
39561	7674411	597653000	2023	11	20	4	2	15	0	-6.797472	-1.437744	-6.866401	-0.003401	0.007913	-0.044363	-0.001487	0.003483	0.000808				-0.273749	0.770849	-0.507500	-0.270734	-168.179128	44.046769	-61.923251
39562	7674436	600153000	2023	11	20	4	2	15	0	-6.812298	-1.433220	-6.877092	-0.011174	0.008155	-0.027200	0.001454	-0.002284	-0.000776	0.428446	-0.070155	-0.334079	-0.273750	0.770850	-0.507498	-0.270735	-168.178899	44.046911	-61.922810
39563	7674461	602653000	2023	11	20	4	2	15	0	-6.819908	-1.440501	-6.878603	-0.006751	0.014636	-0.019775	-0.000964	0.003336	0.000454				-0.273744	0.770853	-0.507497	-0.270733	-168.179336	44.046300	-61.922831
39564	7674486	605153000	2023	11	20	4	2	15	0	-6.819011	-1.424405	-6.882729	-0.020932	0.005626	-0.019868	0.001194	-0.000341	-0.001423				-0.273748	0.770852	-0.507496	-0.270732	-168.178764	44.046491	-61.922527
39565	7674511	607653000	2023	11	20	4	2	15	0	-6.806807	-1.426550	-6.875348	-0.016001	0.003830	-0.033229	0.004154	0.002264	-0.001213				-0.273749	0.770854	-0.507496	-0.270727	-168.178215	44.045982	-61.922175
39566	7674536	610153000	2023	11	20	4	2	15	0	-6.821251	-1.426625	-6.884550	-0.019494	0.006813	-0.016703	-0.001623	0.003811	-0.001593	0.428970	-0.070695	-0.330686	-0.273744	0.770859	-0.507493	-0.270724	-168.178490	44.045244	-61.921814
39567	7674561	612653000	2023	11	20	4	2	15	0	-6.807007	-1.426322	-6.880234	-0.015653	0.000660	-0.029686	0.001542	0.001625	-0.001644				-0.273743	0.770862	-0.507491	-0.270721	-168.178240	44.044806	-61.921360
39568	7674586	615153000	2023	11	20	4	2	15	0	-6.828591	-1.439277	-6.870843	-0.011992	0.025575	-0.019379	-0.000760	0.002671	0.005335				-0.273730	0.770865	-0.507496	-0.270717	-168.179802	44.043603	-61.922424
39569	7674611	617653000	2023	11	20	4	2	15	0	-6.816435	-1.444527	-6.892289	-0.000202	0.004709	-0.011967	0.001826	0.002555	-0.000732				-0.273728	0.770867	-0.507496	-0.270713	-168.179666	44.043068	-61.922190
39570	7674636	620153000	2023	11	20	4	2	15	0	-6.819551	-1.439666	-6.882226	-0.007297	0.011988	-0.017598	0.006030	0.000551	0.000530	0.428954	-0.070662	-0.332632	-0.273731	0.770867	-0.507497	-0.270709	-168.179037	44.042850	-61.922116
39571	7674661	622653000	2023	11	20	4	2	15	0	-6.834181	-1.429764	-6.871747	-0.022789	0.025393	-0.016255	-0.000998	0.001170	0.000872				-0.273727	0.770868	-0.507496	-0.270709	-168.179477	44.042559	-61.922128
39572	7674686	625153000	2023	11	20	4	2	15	0	-6.817149	-1.435556	-6.899790	-0.007778	-0.003134	-0.007518	0.000557	0.000352	0.001166				-0.273734	0.770864	-0.507500	-0.270707	-168.178818	44.042918	-61.922516
39573	7674711	627653000	2023	11	20	4	2	15	0	-6.800866	-1.442293	-6.879886	0.001038	0.002745	-0.031852	0.003060	0.002519	-0.001296				-0.273734	0.770866	-0.507499	-0.270703	-168.178422	44.042365	-61.922162
39574	7674736	630153000	2023	11	20	4	2	15	0	-6.840902	-1.426902	-6.858622	-0.029552	0.037863	-0.021244	-0.002949	-0.000024	0.001756	0.428933	-0.069673	-0.333097	-0.273728	0.770868	-0.507498	-0.270705	-168.179236	44.042264	-61.922311
39575	7674761	632653000	2023	11	20	4	2	15	0	-6.852378	-1.427675	-6.885139	-0.029180	0.026608	0.005505	0.004356	-0.005175	-0.001207				-0.273734	0.770867	-0.507495	-0.270707	-168.178445	44.042796	-61.921649
39576	7674786	635153000	2023	11	20	4	2	15	0	-6.807151	-1.429734	-6.861202	-0.015261	0.015555	-0.042473	0.003570	0.001688	-0.001168				-0.273726	0.770871	-0.507492	-0.270710	-168.179425	44.042536	-61.921514
39577	7674811	637653000	2023	11	20	4	2	15	0	-6.837553	-1.416724	-6.869789	-0.036466	0.024559	-0.017210	0.001543	0.001525	-0.000855				-0.273725	0.770873	-0.507491	-0.270707	-168.179281	44.042142	-61.921203
39578	7674836	640153000	2023	11	20	4	2	15	0	-6.820378	-1.452468	-6.878331	0.003930	0.019795	-0.017879	-0.003399	0.000816	-0.000498	0.429478	-0.072625	-0.332187	-0.273719	0.770877	-0.507488	-0.270708	-168.179873	44.041854	-61.920937
39579	7674861	642653000	2023	11	20	4	2	15	0	-6.800020	-1.456753	-6.874326	0.014109	0.011154	-0.034217	0.002333	0.002069	0.000048				-0.273718	0.770879	-0.507488	-0.270705	-168.179758	44.041405	-61.920835
39580	7674886	645153000	2023	11	20	4	2	15	0	-6.824714	-1.482930	-6.890698	0.032419	0.024249	-0.001678	-0.001165	0.000841	-0.000632				-0.273715	0.770883	-0.507484	-0.270703	-168.179791	44.040953	-61.920177
39581	7674911	647653000	2023	11	20	4	2	15	0	-6.809898	-1.404531	-6.847040	-0.041719	0.018962	-0.054240	0.001288	-0.000151	-0.001961				-0.273714	0.770885	-0.507481	-0.270702	-168.179488	44.040760	-61.919589
39582	7674936	650153000	2023	11	20	4	2	15	0	-6.810914	-1.336636	-6.887227	-0.099688	-0.031030	-0.035257	-0.000402	0.001643	-0.002624	0.430413	-0.070156	-0.332140	-0.273712	0.770890	-0.507477	-0.270700	-168.179379	44.040296	-61.918938
39583	7674961	652653000	2023	11	20	4	2	15	0	-6.828968	-1.431965	-6.893319	-0.016120	0.008252	-0.004382	-0.003289	0.001732	-0.000453				-0.273706	0.770893	-0.507474	-0.270700	-168.179983	44.039886	-61.918716
39584	7674986	655153000	2023	11	20	4	2	15	0	-6.844747	-1.452300	-6.887537	-0.003764	0.029074	0.005513	0.001540	0.002065	-0.006613				-0.273709	0.770900	-0.507467	-0.270692	-168.178378	44.039102	-61.916961
39585	7675011	657653000	2023	11	20	4	2	15	0	-6.785993	-1.460138	-6.859981	0.019728	0.013417	-0.053565	0.002796	-0.004357	0.000546				-0.273712	0.770899	-0.507465	-0.270694	-168.178074	44.039568	-61.916685
39586	7675036	660153000	2023	11	20	4	2	15	0	-6.795977	-1.463562	-6.864138	0.020279	0.018241	-0.043195	-0.004663	0.000163	0.000574	0.429417	-0.069183	-0.332603	-0.273706	0.770902	-0.507463	-0.270697	-168.178976	44.039407	-61.916604
39587	7675061	662653000	2023	11	20	4	2	15	0	-6.824256	-1.448077	-6.863274	-0.004087	0.031851	-0.026426	0.003596	0.007155	0.001156				-0.273702	0.770904	-0.507466	-0.270689	-168.178967	44.038281	-61.916910
39588	7675086	665153000	2023	11	20	4	2	15	0	-6.809636	-1.445004	-6.876019	-0.000197	0.012474	-0.028072	0.005621	0.000008	-0.001143				-0.273702	0.770903	-0.507467	-0.270690	-168.179199	44.038424	-61.917126
39589	7675111	667653000	2023	11	20	4	2	15	0	-6.824301	-1.453958	-6.871684	0.002484	0.027931	-0.019608	0.002813	0.002443	-0.001970				-0.273701	0.770906	-0.507465	-0.270685	-168.178747	44.037868	-61.916644
39590	7675136	670153000	2023	11	20	4	2	15	0	-6.823231	-1.443880	-6.868934	-0.006802	0.025798	-0.023773	0.000540	0.000054	0.000916	0.429446	-0.071137	-0.333130	-0.273699	0.770907	-0.507465	-0.270685	-168.178950	44.037724	-61.916635
39591	7675161	672653000	2023	11	20	4	2	15	0	-6.832589	-1.427809	-6.883093	-0.023098	0.016543	-0.009672	0.001767	0.001531	-0.001904				-0.273699	0.770910	-0.507463	-0.270682	-168.178634	44.037295	-61.916132
39592	7675186	675153000	2023	11	20	4	2	15	0	-6.863308	-1.405811	-6.890631	-0.052951	0.023499	0.013744	0.001311	0.003060	0.001351				-0.273701	0.770909	-0.507466	-0.270676	-168.178181	44.036800	-61.916433
39593	7675211	677653000	2023	11	20	4	2	15	0	-6.917134	-1.417740	-6.890751	-0.060088	0.061513	0.053000	0.000723	0.000236	-0.001083				-0.273699	0.770911	-0.507464	-0.270675	-168.178092	44.036572	-61.916045
39594	7675236	680153000	2023	11	20	4	2	15	0	-6.757993	-1.467044	-6.832197	0.031341	0.018384	-0.091562	-0.001837	0.009602	-0.002253	0.429413	-0.068700	-0.332106	-0.273690	0.770918	-0.507463	-0.270666	-168.178474	44.034996	-61.915803
39595	7675261	682653000	2023	11	20	4	2	15	0	-6.701373	-1.476873	-6.853911	0.062680	-0.029376	-0.114192	0.001431	0.004411	0.000725				-0.273686	0.770921	-0.507464	-0.270661	-168.178638	44.034237	-61.915927
39596	7675286	685153000	2023	11	20	4	2	15	0	-6.757850	-1.470009	-6.897207	0.043317	-0.025909	-0.045479	-0.002891	-0.002299	0.000372				-0.273676	0.770928	-0.507461	-0.270657	-168.179355	44.033030	-61.915461
39597	7675311	687653000	2023	11	20	4	2	15	0	-6.841698	-1.470008	-6.922282	0.018205	0.009804	0.030451	0.004297	0.000305	-0.000688				-0.273678	0.770929	-0.507460	-0.270653	-168.178799	44.032810	-61.915135
39598	7675336	690153000	2023	11	20	4	2	15	0	-6.841883	-1.468314	-6.889933	0.012165	0.031940	0.007565	0.000771	-0.000224	0.001390	0.428954	-0.071137	-0.333614	-0.273676	0.770930	-0.507460	-0.270654	-168.179020	44.032723	-61.915197
39599	7675361	692653000	2023	11	20	4	2	15	0	-6.808326	-1.448761	-6.826928	-0.003262	0.048083	-0.062977	-0.004269	-0.000754	0.002096				-0.273670	0.770931	-0.507459	-0.270658	-168.180037	44.032735	-61.915364
39600	7675386	695153000	2023	11	20	4	2	15	0	-6.838414	-1.436670	-6.865449	-0.019400	0.036087	-0.016735	0.003562	0.001904	0.001732				-0.273677	0.770925	-0.507462	-0.270663	-168.179814	44.033882	-61.915934
39601	7675411	697653000	2023	11	20	4	2	15	0	-6.832214	-1.422196	-6.900953	-0.025637	0.002741	0.001805	-0.002597	0.002161	0.002634				-0.273670	0.770926	-0.507463	-0.270664	-168.180750	44.033497	-61.916338
39602	7675436	700153000	2023	11	20	4	2	15	0	-6.851292	-1.426664	-6.901299	-0.027872	0.016167	0.015967	-0.000437	0.001945	0.002857	0.429885	-0.069609	-0.336019	-0.273666	0.770927	-0.507464	-0.270663	-168.181406	44.033149	-61.916781
39603	7675461	702653000	2023	11	20	4	2	15	0	-6.793447	-1.425140	-6.872712	-0.013710	-0.001041	-0.044580	0.001464	0.002339	0.003313				-0.273662	0.770927	-0.507467	-0.270661	-168.181860	44.032760	-61.917321
39604	7675486	705153000	2023	11	20	4	2	15	0	-6.814004	-1.410697	-6.880483	-0.032936	0.001892	-0.026946	-0.002664	0.001364	0.000245				-0.273654	0.770930	-0.507468	-0.270661	-168.182911	44.032206	-61.917623
39605	7675511	707653000	2023	11	20	4	2	15	0	-6.898910	-1.367569	-6.903575	-0.098755	0.025014	0.041968	0.002887	-0.002272	-0.002612				-0.273657	0.770932	-0.507464	-0.270661	-168.182227	44.032287	-61.916819
39606	7675536	710153000	2023	11	20	4	2	15	0	-6.948932	-1.391342	-6.877347	-0.097172	0.083290	0.061778	0.001105	0.004139	0.002296	0.429954	-0.071170	-0.330699	-0.273652	0.770933	-0.507466	-0.270657	-168.182649	44.031613	-61.917249
39607	7675561	712653000	2023	11	20	4	2	15	0	-6.656857	-1.525187	-6.787482	0.113719	0.005677	-0.184766	-0.000268	0.005130	0.002647				-0.273646	0.770935	-0.507469	-0.270653	-168.183339	44.030812	-61.917771
39608	7675586	715153000	2023	11	20	4	2	15	0	-6.648427	-1.510576	-6.856002	0.112636	-0.052229	-0.144556	-0.002500	0.001682	0.002927				-0.273640	0.770936	-0.507471	-0.270651	-168.184053	44.030221	-61.918229
39609	7675611	717653000	2023	11	20	4	2	15	0	-6.814656	-1.404049	-6.941411	-0.030404	-0.041862	0.015407	-0.006838	-0.000198	0.008283				-0.273629	0.770935	-0.507475	-0.270658	-168.186292	44.030335	-61.919627
39610	7675636	720153000	2023	11	20	4	2	15	0	-6.859617	-1.488768	-6.891689	0.026165	0.049629	0.024132	0.000673	-0.000668	0.004218	0.427458	-0.069673	-0.334552	-0.273626	0.770934	-0.507477	-0.270660	-168.186896	44.030402	-61.920216
39611	7675661	722653000	2023	11	20	4	2	15	0	-6.773787	-1.435363	-6.857818	0.000896	0.001070	-0.067218	-0.001521	0.002087	0.004826				-0.273620	0.770934	-0.507481	-0.270661	-168.187971	44.030091	-61.921036
39612	7675686	725153000	2023	11	20	4	2	15	0	-6.786708	-1.443619	-6.828833	0.000434	0.032061	-0.077425	-0.002131	-0.001879	0.005207				-0.273617	0.770929	-0.507483	-0.270671	-168.189291	44.031115	-61.922002
39613	7675711	727653000	2023	11	20	4	2	15	0	-6.846522	-1.457793	-6.865683	-0.001420	0.049001	-0.007829	0.000357	-0.003238	0.004186				-0.273616	0.770927	-0.507484	-0.270676	-168.189867	44.031533	-61.922482
39614	7675736	730153000	2023	11	20	4	2	15	0	-6.863353	-1.399819	-6.921473	-0.053244	0.001474	0.034600	0.000153	-0.000533	0.003392	0.430377	-0.069134	-0.334551	-0.273613	0.770927	-0.507486	-0.270677	-168.190435	44.031551	-61.922911
39615	7675761	732653000	2023	11	20	4	2	15	0	-6.839752	-1.384010	-6.888007	-0.064702	0.004475	-0.007682	0.003632	-0.000741	0.002869				-0.273614	0.770925	-0.507488	-0.270677	-168.190436	44.031583	-61.923241
39616	7675786	735153000	2023	11	20	4	2	15	0	-6.775543	-1.427482	-6.858924	-0.006578	-0.001346	-0.066380	0.001600	0.000549	0.001738				-0.273612	0.770926	-0.507488	-0.270676	-168.190590	44.031388	-61.923315
39617	7675811	737653000	2023	11	20	4	2	15	0	-6.784107	-1.445091	-6.876357	0.009459	-0.002221	-0.045568	0.002050	-0.001973	0.004155				-0.273612	0.770923	-0.507491	-0.270678	-168.190949	44.031635	-61.923835
39618	7675836	740153000	2023	11	20	4	2	15	0	-6.797959	-1.469216	-6.884993	0.028512	0.008710	-0.026316	-0.000794	-0.000830	0.002889	0.429446	-0.070662	-0.332147	-0.273609	0.770923	-0.507492	-0.270680	-168.191582	44.031677	-61.924168
39619	7675861	742653000	2023	11	20	4	2	15	0	-6.813251	-1.461949	-6.868674	0.014299	0.027532	-0.028238	-0.000380	0.002819	0.002985				-0.273604	0.770924	-0.507494	-0.270679	-168.192264	44.031214	-61.924658
39620	7675886	745153000	2023	11	20	4	2	15	0	-6.793773	-1.450893	-6.872907	0.011191	0.008446	-0.040427	0.000534	-0.000478	0.000747				-0.273602	0.770925	-0.507492	-0.270680	-168.192500	44.031201	-61.924543
39621	7675911	747653000	2023	11	20	4	2	15	0	-6.820583	-1.420002	-6.868191	-0.027060	0.018326	-0.029654	-0.002894	-0.003651	0.002375				-0.273598	0.770925	-0.507491	-0.270686	-168.193282	44.031621	-61.924658
39622	7675936	750153000	2023	11	20	4	2	15	0	-6.813122	-1.421617	-6.887825	-0.020505	0.000407	-0.020783	0.006527	-0.000945	0.002488	0.432409	-0.072585	-0.331711	-0.273602	0.770923	-0.507494	-0.270684	-168.192806	44.031674	-61.924906
39623	7675961	752653000	2023	11	20	4	2	15	0	-6.835644	-1.406006	-6.902267	-0.040638	-0.000506	0.002735	0.002127	0.000531	0.000510				-0.273602	0.770924	-0.507493	-0.270682	-168.192738	44.031460	-61.924836
39624	7675986	755153000	2023	11	20	4	2	15	0	-6.827936	-1.416591	-6.864172	-0.033427	0.024634	-0.027874	0.001971	-0.000679	0.005981				-0.273608	0.770918	-0.507501	-0.270679	-168.192306	44.031619	-61.925756
39625	7676011	757653000	2023	11	20	4	2	15	0	-6.830091	-1.417084	-6.877998	-0.031791	0.016323	-0.016574	0.003558	-0.004669	0.002434				-0.273611	0.770916	-0.507501	-0.270682	-168.192144	44.032187	-61.925846
39626	7676036	760153000	2023	11	20	4	2	15	0	-6.825741	-1.449238	-6.889596	0.001258	0.016201	-0.006703	0.001650	-0.004408	0.001021	0.430413	-0.071105	-0.334106	-0.273613	0.770915	-0.507499	-0.270686	-168.192075	44.032677	-61.925668
39627	7676061	762653000	2023	11	20	4	2	15	0	-6.804867	-1.458722	-6.879465	0.015584	0.013360	-0.026946	0.003598	0.001707	0.000484				-0.273613	0.770915	-0.507500	-0.270682	-168.191823	44.032296	-61.925625
39628	7676086	765153000	2023	11	20	4	2	15	0	-6.816863	-1.434247	-6.846375	-0.015540	0.035744	-0.045498	-0.003766	-0.002533	0.000859				-0.273607	0.770918	-0.507493	-0.270693	-168.192955	44.032972	-61.925083
39629	7676111	767653000	2023	11	20	4	2	15	0	-6.814550	-1.428261	-6.882100	-0.015368	0.007327	-0.022847	0.001816	-0.002190	0.002377				-0.273607	0.770917	-0.507494	-0.270695	-168.193102	44.033190	-61.925257
39630	7676136	770153000	2023	11	20	4	2	15	0	-6.842690	-1.444962	-6.899856	-0.007042	0.018323	0.011666	0.006197	-0.001608	0.000561	0.430446	-0.072118	-0.332181	-0.273612	0.770916	-0.507494	-0.270693	-168.192396	44.033277	-61.925098
39631	7676161	772653000	2023	11	20	4	2	15	0	-6.829673	-1.440573	-6.883268	-0.008893	0.020362	-0.009701	-0.000244	0.001582	0.002552				-0.273608	0.770917	-0.507496	-0.270693	-168.192967	44.032974	-61.925454
39632	7676186	775153000	2023	11	20	4	2	15	0	-6.830992	-1.431970	-6.854935	-0.021292	0.037935	-0.029986	0.000411	-0.002991	0.002942				-0.273610	0.770915	-0.507498	-0.270691	-168.192753	44.032959	-61.925776
39633	7676211	777653000	2023	11	20	4	2	15	0	-6.815133	-1.429296	-6.871205	-0.016264	0.015605	-0.029955	0.002504	-0.001957	-0.000314				-0.273611	0.770915	-0.507497	-0.270691	-168.192447	44.033065	-61.925438
39634	7676236	780153000	2023	11	20	4	2	15	0	-6.822854	-1.442080	-6.897375	-0.003254	0.006658	-0.004289	0.001978	0.000276	0.003060	0.429470	-0.072609	-0.333160	-0.273610	0.770914	-0.507499	-0.270691	-168.192737	44.032960	-61.925858
39635	7676261	782653000	2023	11	20	4	2	15	0	-6.831306	-1.455704	-6.899865	0.006951	0.014779	0.005342	0.002570	-0.001815	0.003070				-0.273611	0.770913	-0.507501	-0.270692	-168.192882	44.033148	-61.926179
39636	7676286	785153000	2023	11	20	4	2	15	0	-6.790359	-1.451938	-6.851977	0.010727	0.020990	-0.057374	-0.000413	-0.001866	0.000026				-0.273603	0.770914	-0.507500	-0.270696	-168.194034	44.033089	-61.926502
39637	7676311	787653000	2023	11	20	4	2	15	0	-6.819128	-1.447446	-6.869169	-0.000839	0.025740	-0.025941	0.001908	-0.001259	0.000113				-0.273604	0.770915	-0.507499	-0.270696	-168.193887	44.033111	-61.926262
39638	7676336	790153000	2023	11	20	4	2	15	0	-6.810272	-1.457780	-6.877552	0.013160	0.017891	-0.024677	-0.003627	-0.000146	0.002337	0.430886	-0.070590	-0.335070	-0.273598	0.770916	-0.507498	-0.270699	-168.194867	44.033043	-61.926513
39639	7676361	792653000	2023	11	20	4	2	15	0	-6.793505	-1.423359	-6.894051	-0.010787	-0.015913	-0.029784	0.000674	-0.003430	0.004873				-0.273597	0.770914	-0.507500	-0.270704	-168.195480	44.033510	-61.927120
39640	7676386	795153000	2023	11	20	4	2	15	0	-6.800260	-1.442829	-6.860697	0.000375	0.018294	-0.045694	-0.000389	0.000585	0.000092				-0.273589	0.770918	-0.507496	-0.270707	-168.196391	44.033370	-61.926803
39641	7676411	797653000	2023	11	20	4	2	15	0	-6.812020	-1.416036	-6.895471	-0.023458	-0.007458	-0.016987	0.000656	-0.001237	0.006454				-0.273586	0.770915	-0.507501	-0.270710	-168.197288	44.033574	-61.927811
39642	7676436	800153000	2023	11	20	4	2	15	0	-6.828655	-1.436666	-6.881968	-0.011547	0.019367	-0.011893	-0.003389	-0.003974	0.004771	0.428494	-0.072150	-0.332174	-0.273582	0.770913	-0.507501	-0.270718	-168.198457	44.034112	-61.928384
39643	7676461	802653000	2023	11	20	4	2	15	0	-6.798486	-1.435305	-6.884457	-0.002287	-0.002125	-0.031313	0.003805	-0.004762	0.005171				-0.273585	0.770909	-0.507504	-0.270722	-168.198624	44.034775	-61.928992
39644	7676486	805153000	2023	11	20	4	2	15	0	-6.796099	-1.443821	-6.879582	0.005937	0.002616	-0.035152	0.000166	-0.001952	0.004027				-0.273585	0.770904	-0.507508	-0.270729	-168.199442	44.035636	-61.929891
39645	7676511	807653000	2023	11	20	4	2	15	0	-6.807043	-1.431794	-6.879997	-0.008968	0.005305	-0.029021	0.000898	0.000206	0.001221				-0.273583	0.770905	-0.507508	-0.270729	-168.199635	44.035484	-61.929941
39646	7676536	810153000	2023	11	20	4	2	15	0	-6.820972	-1.442155	-6.882350	-0.003505	0.016094	-0.016161	-0.002708	0.000390	0.003775	0.431389	-0.070615	-0.333126	-0.273577	0.770905	-0.507509	-0.270732	-168.200693	44.035379	-61.930490
39647	7676561	812653000	2023	11	20	4	2	15	0	-6.826635	-1.437357	-6.889530	-0.008819	0.013016	-0.007877	-0.001085	-0.001894	0.002911				-0.273574	0.770905	-0.507509	-0.270735	-168.201332	44.035570	-61.930774
39648	7676586	815153000	2023	11	20	4	2	15	0	-6.821914	-1.432958	-6.875487	-0.013273	0.018559	-0.021687	-0.000143	0.001175	0.004610				-0.273568	0.770906	-0.507513	-0.270731	-168.202067	44.034779	-61.931533
39649	7676611	817653000	2023	11	20	4	2	15	0	-6.834394	-1.423783	-6.883006	-0.024904	0.018058	-0.009068	0.000822	-0.002372	0.003888				-0.273567	0.770904	-0.507515	-0.270734	-168.202556	44.035067	-61.931989
39650	7676636	820153000	2023	11	20	4	2	15	0	-6.912662	-1.404282	-6.912293	-0.065346	0.040855	0.063080	-0.000918	-0.000744	0.003418	0.429433	-0.070164	-0.332623	-0.273563	0.770904	-0.507516	-0.270737	-168.203277	44.035114	-61.932417
39651	7676661	822653000	2023	11	20	4	2	15	0	-6.945118	-1.411148	-6.896484	-0.072033	0.074860	0.075522	-0.001724	0.000357	0.004024				-0.273558	0.770904	-0.507518	-0.270739	-168.204229	44.035021	-61.933019
39652	7676686	825153000	2023	11	20	4	2	15	0	-6.680665	-1.384471	-6.816773	-0.018585	-0.046134	-0.168310	-0.002284	0.004076	0.002087				-0.273553	0.770905	-0.507519	-0.270737	-168.204765	44.034545	-61.933292
39653	7676711	827653000	2023	11	20	4	2	15	0	-6.699452	-1.440713	-6.845470	0.031389	-0.035310	-0.126790	0.002391	0.003131	0.004061				-0.273550	0.770905	-0.507523	-0.270734	-168.205208	44.034072	-61.934001
39654	7676736	830153000	2023	11	20	4	2	15	0	-6.785619	-1.472453	-6.893891	0.038855	-0.003791	-0.028157	-0.005546	-0.002944	0.002605	0.429913	-0.069191	-0.331631	-0.273543	0.770906	-0.507521	-0.270741	-168.206423	44.034403	-61.934197
39655	7676761	832653000	2023	11	20	4	2	15	0	-6.852734	-1.448723	-6.940431	0.000531	-0.001673	0.047762	-0.000520	-0.003201	0.001066				-0.273542	0.770906	-0.507520	-0.270745	-168.206696	44.034730	-61.934063
39656	7676786	835153000	2023	11	20	4	2	15	0	-6.820460	-1.442375	-6.880076	-0.002616	0.017914	-0.018085	0.000682	0.000577	0.008250				-0.273535	0.770903	-0.507524	-0.270752	-168.208384	44.035036	-61.935338
39657	7676811	837653000	2023	11	20	4	2	15	0	-6.792657	-1.410641	-6.816670	-0.031589	0.033752	-0.086695	-0.002663	-0.002144	0.000722				-0.273532	0.770905	-0.507521	-0.270756	-168.208948	44.035201	-61.935186
39658	7676836	840153000	2023	11	20	4	2	15	0	-6.844415	-1.410158	-6.879816	-0.040501	0.022375	-0.006349	-0.002144	-0.004107	0.004391	0.427030	-0.072648	-0.333152	-0.273529	0.770903	-0.507522	-0.270763	-168.209877	44.035749	-61.935664
39659	7676861	842653000	2023	11	20	4	2	15	0	-6.867258	-1.424768	-6.903012	-0.031300	0.025766	0.028001	-0.002633	-0.000128	0.004146				-0.273523	0.770903	-0.507523	-0.270766	-168.210959	44.035733	-61.936261
39660	7676886	845153000	2023	11	20	4	2	15	0	-6.813909	-1.412441	-6.887321	-0.026738	-0.001330	-0.021935	-0.001508	-0.001469	0.006752				-0.273521	0.770897	-0.507530	-0.270771	-168.211937	44.036232	-61.937665
39661	7676911	847653000	2023	11	20	4	2	15	0	-6.778789	-1.419163	-6.859375	-0.012571	-0.002113	-0.065027	-0.001337	-0.005817	-0.001389				-0.273522	0.770899	-0.507524	-0.270777	-168.211922	44.036851	-61.936955
39662	7676936	850153000	2023	11	20	4	2	15	0	-6.833160	-1.423912	-6.863443	-0.025875	0.031029	-0.023671	0.001102	-0.005807	0.002223	0.428962	-0.072102	-0.334608	-0.273524	0.770897	-0.507523	-0.270782	-168.212053	44.037573	-61.936956
39663	7676961	852653000	2023	11	20	4	2	15	0	-6.850037	-1.450374	-6.881800	-0.004427	0.037895	0.004864	0.001960	-0.001541	0.001814				-0.273524	0.770896	-0.507524	-0.270783	-168.212128	44.037685	-61.937051
39664	7676986	855153000	2023	11	20	4	2	15	0	-6.852452	-1.462791	-6.875227	0.005463	0.048194	0.003743	0.001130	0.000142	0.005474				-0.273526	0.770893	-0.507527	-0.270783	-168.212073	44.037878	-61.937450
39665	7677011	857653000	2023	11	20	4	2	15	0	-6.811535	-1.450747	-6.870715	0.007434	0.021420	-0.029644	0.001246	0.001263	0.003048				-0.273524	0.770893	-0.507529	-0.270782	-168.212495	44.037630	-61.937907
39666	7677036	860153000	2023	11	20	4	2	15	0	-6.843406	-1.401930	-6.868480	-0.048804	0.026822	-0.016232	-0.002024	-0.001937	0.006042	0.428970	-0.072118	-0.333635	-0.273519	0.770891	-0.507532	-0.270788	-168.213699	44.037922	-61.938803
39667	7677061	862653000	2023	11	20	4	2	15	0	-6.859872	-1.418708	-6.886996	-0.036298	0.030278	0.010707	-0.001937	0.004504	0.000932				-0.273512	0.770895	-0.507532	-0.270785	-168.214377	44.037162	-61.938959
39668	7677086	865153000	2023	11	20	4	2	15	0	-6.778948	-1.463191	-6.872974	0.030656	0.003488	-0.048882	0.000650	-0.003468	0.001117				-0.273505	0.770894	-0.507534	-0.270788	-168.215543	44.037122	-61.939745
39669	7677111	867653000	2023	11	20	4	2	15	0	-6.780293	-1.450504	-6.882086	0.019809	-0.006135	-0.043395	-0.002462	-0.001059	0.002369				-0.273501	0.770895	-0.507534	-0.270791	-168.216335	44.037184	-61.939959
39670	7677136	870153000	2023	11	20	4	2	15	0	-6.838079	-1.424987	-6.871951	-0.024888	0.029043	-0.014105	-0.003518	-0.001423	-0.001149	0.428449	-0.068740	-0.330643	-0.273497	0.770898	-0.507530	-0.270794	-168.216793	44.037197	-61.939475
39671	7677161	872653000	2023	11	20	4	2	15	0	-6.788586	-1.420801	-6.875590	-0.011523	-0.006368	-0.046562	0.001092	-0.002335	0.001531				-0.273497	0.770898	-0.507529	-0.270797	-168.216930	44.037414	-61.939476
39672	7677186	875153000	2023	11	20	4	2	15	0	-6.777020	-1.434614	-6.848377	0.001412	0.010103	-0.071727	-0.002058	0.002056	0.002050				-0.273491	0.770904	-0.507523	-0.270795	-168.216972	44.036778	-61.938448
39673	7677211	877653000	2023	11	20	4	2	15	0	-6.821911	-1.460071	-6.876135	0.013957	0.027645	-0.017252	-0.000650	-0.002976	0.003799				-0.273489	0.770903	-0.507524	-0.270799	-168.217646	44.037151	-61.938875
39674	7677236	880153000	2023	11	20	4	2	15	0	-6.834978	-1.458180	-6.880407	0.008491	0.032462	-0.005440	-0.002953	-0.000356	0.003300	0.428462	-0.070662	-0.333116	-0.273484	0.770903	-0.507524	-0.270803	-168.218660	44.037139	-61.939309
39675	7677261	882653000	2023	11	20	4	2	15	0	-6.868813	-1.424498	-6.880650	-0.034359	0.042631	0.013306	0.000361	0.003356	0.002063				-0.273479	0.770905	-0.507526	-0.270800	-168.219133	44.036570	-61.939652
39676	7677286	885153000	2023	11	20	4	2	15	0	-6.831413	-1.416842	-6.883780	-0.028125	0.014161	-0.011609	-0.000715	-0.000574	0.005370				-0.273473	0.770900	-0.507534	-0.270803	-168.220616	44.036666	-61.941363
39677	7677311	887653000	2023	11	20	4	2	15	0	-6.763960	-1.452898	-6.866528	0.026176	-0.004341	-0.065350	-0.009118	-0.000443	0.004887				-0.273461	0.770902	-0.507534	-0.270811	-168.222720	44.036709	-61.942098
39678	7677336	890153000	2023	11	20	4	2	15	0	-6.800911	-1.448164	-6.878689	0.010926	0.009173	-0.031802	-0.001201	0.002726	0.005237	0.427498	-0.071177	-0.332637	-0.273454	0.770902	-0.507538	-0.270811	-168.223835	44.036319	-61.943044
39679	7677361	892653000	2023	11	20	4	2	15	0	-6.819911	-1.391166	-6.905869	-0.044575	-0.016950	-0.007827	-0.003459	-0.003341	0.002464				-0.273450	0.770902	-0.507536	-0.270817	-168.224717	44.036704	-61.943187
39680	7677386	895153000	2023	11	20	4	2	15	0	-6.828997	-1.401740	-6.888737	-0.040198	0.004281	-0.012016	0.001215	-0.003174	0.003701				-0.273449	0.770899	-0.507541	-0.270818	-168.225208	44.036781	-61.944109
39681	7677411	897653000	2023	11	20	4	2	15	0	-6.829603	-1.421756	-6.859589	-0.025603	0.031777	-0.029170	-0.000712	-0.001575	0.007965				-0.273445	0.770895	-0.507547	-0.270822	-168.226495	44.037077	-61.945397
39682	7677436	900153000	2023	11	20	4	2	15	0	-6.824174	-1.419696	-6.877629	-0.023186	0.014979	-0.020547	-0.000533	-0.003336	0.001728	0.429950	-0.072110	-0.333152	-0.273444	0.770895	-0.507546	-0.270827	-168.226856	44.037444	-61.945386
39683	7677461	902653000	2023	11	20	4	2	15	0	-6.828895	-1.414352	-6.873009	-0.030566	0.019470	-0.021301	0.002178	0.000317	-0.000888				-0.273444	0.770897	-0.507544	-0.270825	-168.226583	44.037220	-61.945027
39684	7677486	905153000	2023	11	20	4	2	15	0	-6.837036	-1.440498	-6.874958	-0.008474	0.031807	-0.010439	-0.000319	-0.003390	0.004032				-0.273448	0.770894	-0.507540	-0.270834	-168.226483	44.038415	-61.944591
39685	7677511	907653000	2023	11	20	4	2	15	0	-6.820884	-1.418173	-6.879654	-0.023434	0.010966	-0.021638	0.004869	0.003264	0.000066				-0.273449	0.770896	-0.507541	-0.270828	-168.226036	44.037798	-61.944539
39686	7677536	910153000	2023	11	20	4	2	15	0	-6.816290	-1.426506	-6.891501	-0.012186	0.002387	-0.015270	0.000144	-0.004882	0.002927	0.429986	-0.073606	-0.331723	-0.273449	0.770894	-0.507541	-0.270833	-168.226425	44.038413	-61.944707
39687	7677561	912653000	2023	11	20	4	2	15	0	-6.844388	-1.415411	-6.888376	-0.032266	0.018685	0.000435	-0.001708	-0.003885	0.004361				-0.273446	0.770892	-0.507542	-0.270840	-168.227304	44.038928	-61.945209
39688	7677586	915153000	2023	11	20	4	2	15	0	-6.852129	-1.415272	-6.886232	-0.035323	0.025284	0.004290	-0.000432	0.003430	0.004034				-0.273442	0.770891	-0.507546	-0.270840	-168.228171	44.038705	-61.946113
39689	7677611	917653000	2023	11	20	4	2	15	0	-6.859189	-1.467206	-6.875044	0.009313	0.055048	0.008939	-0.004719	0.000704	0.004864				-0.273433	0.770891	-0.507548	-0.270844	-168.229671	44.038593	-61.946885
39690	7677636	920153000	2023	11	20	4	2	15	0	-6.805906	-1.482039	-6.835140	0.035303	0.054195	-0.054008	0.001878	0.005388	0.001561	0.431845	-0.069119	-0.334070	-0.273429	0.770893	-0.507550	-0.270838	-168.229913	44.037730	-61.947202
39691	7677661	922653000	2023	11	20	4	2	15	0	-6.691799	-1.382214	-6.870334	-0.014047	-0.076141	-0.123194	-0.000934	0.002227	0.000126				-0.273424	0.770896	-0.507549	-0.270836	-168.230273	44.037268	-61.947104
39692	7677686	925153000	2023	11	20	4	2	15	0	-6.788365	-1.412802	-6.904239	-0.013276	-0.028003	-0.027724	-0.004616	-0.001335	0.004857				-0.273413	0.770899	-0.507553	-0.270831	-168.231562	44.035974	-61.947988
39693	7677711	927653000	2023	11	20	4	2	15	0	-6.802322	-1.465072	-6.900231	0.030097	0.001187	-0.013179	-0.000715	-0.000595	0.004072				-0.273409	0.770899	-0.507555	-0.270833	-168.232342	44.036023	-61.948541
39694	7677736	930153000	2023	11	20	4	2	15	0	-6.820202	-1.484903	-6.887505	0.040891	0.027905	-0.006801	0.000348	-0.004295	0.005464	0.430918	-0.072078	-0.334128	-0.273408	0.770895	-0.507557	-0.270839	-168.233058	44.036632	-61.949219
39695	7677761	932653000	2023	11	20	4	2	15	0	-6.797688	-1.464015	-6.830093	0.021038	0.046738	-0.065918	-0.000939	-0.000368	0.002957				-0.273404	0.770896	-0.507558	-0.270841	-168.233736	44.036610	-61.949584
39696	7677786	935153000	2023	11	20	4	2	15	0	-6.840061	-1.437304	-6.857899	-0.013877	0.045119	-0.020810	-0.002024	-0.001647	0.005109				-0.273403	0.770889	-0.507561	-0.270858	-168.235320	44.038324	-61.950753
39697	7677811	937653000	2023	11	20	4	2	15	0	-6.864217	-1.437480	-6.887561	-0.017538	0.039960	0.016884	-0.002541	-0.000212	0.006767				-0.273396	0.770887	-0.507565	-0.270862	-168.236744	44.038399	-61.951860
39698	7677836	940153000	2023	11	20	4	2	15	0	-6.851457	-1.412673	-6.886170	-0.036503	0.024669	0.003399	-0.001520	0.002321	0.004331	0.428938	-0.070156	-0.333594	-0.273390	0.770887	-0.507568	-0.270862	-168.237760	44.038042	-61.952596
39699	7677861	942653000	2023	11	20	4	2	15	0	-6.807853	-1.413397	-6.871746	-0.022930	0.007222	-0.036958	-0.003609	-0.002292	0.003139				-0.273385	0.770887	-0.507567	-0.270868	-168.238791	44.038296	-61.952922
39700	7677886	945153000	2023	11	20	4	2	15	0	-6.785415	-1.423775	-6.862345	-0.006824	0.003324	-0.057651	-0.005792	-0.000353	0.004769				-0.273370	0.770891	-0.507569	-0.270868	-168.240698	44.037406	-61.953713
39701	7677911	947653000	2023	11	20	4	2	15	0	-6.828919	-1.431992	-6.864084	-0.013778	0.032490	-0.024982	-0.000343	0.000682	0.000890				-0.273367	0.770893	-0.507568	-0.270868	-168.241034	44.037181	-61.953712
39702	7677936	950153000	2023	11	20	4	2	15	0	-6.822914	-1.445671	-6.889102	0.004607	0.015940	-0.009543	-0.002398	0.000737	0.001998	0.429413	-0.069649	-0.334072	-0.273362	0.770894	-0.507568	-0.270869	-168.241819	44.036979	-61.953932
39703	7677961	952653000	2023	11	20	4	2	15	0	-6.823709	-1.426633	-6.893879	-0.012709	0.006715	-0.008420	0.001702	0.000710	0.004040				-0.273360	0.770894	-0.507568	-0.270870	-168.242061	44.037013	-61.954058
39704	7677986	955153000	2023	11	20	4	2	15	0	-6.848353	-1.408587	-6.888147	-0.038283	0.020307	0.002035	-0.003356	-0.002345	0.007168				-0.273354	0.770892	-0.507572	-0.270877	-168.243597	44.037392	-61.955152
39705	7678011	957653000	2023	11	20	4	2	15	0	-6.835698	-1.439398	-6.888966	-0.005182	0.022196	-0.001673	-0.001097	0.001384	0.006271				-0.273348	0.770890	-0.507576	-0.270879	-168.244790	44.037223	-61.956228
39706	7678036	960153000	2023	11	20	4	2	15	0	-6.858237	-1.456979	-6.883228	0.002822	0.046426	0.012529	-0.002035	0.000251	0.003330	0.429430	-0.070630	-0.334092	-0.273343	0.770891	-0.507577	-0.270881	-168.245690	44.037122	-61.956696
39707	7678061	962653000	2023	11	20	4	2	15	0	-6.784945	-1.408987	-6.867798	-0.018998	-0.005200	-0.056303	-0.005056	0.002224	0.005861				-0.273332	0.770891	-0.507580	-0.270884	-168.247421	44.036827	-61.957716
39708	7678086	965153000	2023	11	20	4	2	15	0	-6.790054	-1.364239	-6.921527	-0.054861	-0.054533	-0.021492	0.002109	-0.001173	0.004508				-0.273332	0.770888	-0.507585	-0.270886	-168.247976	44.037111	-61.958653
39709	7678111	967653000	2023	11	20	4	2	15	0	-6.820932	-1.393134	-6.908929	-0.039937	-0.016394	-0.004661	-0.000992	-0.000869	0.006988				-0.273327	0.770885	-0.507589	-0.270890	-168.249189	44.037278	-61.959777
39710	7678136	970153000	2023	11	20	4	2	15	0	-6.816873	-1.427094	-6.874275	-0.011583	0.016439	-0.026902	-0.001663	-0.004588	0.007199	0.430934	-0.072110	-0.332182	-0.273324	0.770881	-0.507593	-0.270898	-168.250425	44.037974	-61.960799
39711	7678161	972653000	2023	11	20	4	2	15	0	-6.810066	-1.476491	-6.860039	0.034725	0.038593	-0.034424	0.000129	-0.002931	0.005000				-0.273322	0.770879	-0.507595	-0.270903	-168.251147	44.038372	-61.961449
39712	7678186	975153000	2023	11	20	4	2	15	0	-6.785484	-1.444883	-6.846534	0.011791	0.021757	-0.065643	-0.001121	-0.001030	0.000606				-0.273322	0.770876	-0.507596	-0.270910	-168.251837	44.039203	-61.961905
39713	7678211	977653000	2023	11	20	4	2	15	0	-6.839547	-1.389168	-6.908218	-0.049657	-0.005684	0.007197	0.004063	-0.002414	0.004210				-0.273324	0.770873	-0.507599	-0.270912	-168.251907	44.039502	-61.962433
39714	7678236	980153000	2023	11	20	4	2	15	0	-6.859011	-1.406630	-6.919499	-0.038033	0.004771	0.031224	-0.004072	-0.002468	0.006541	0.428458	-0.071128	-0.334585	-0.273317	0.770871	-0.507601	-0.270919	-168.253459	44.039881	-61.963409
39715	7678261	982653000	2023	11	20	4	2	15	0	-6.806773	-1.397194	-6.894125	-0.032836	-0.013848	-0.024330	0.001704	-0.000267	0.003748				-0.273315	0.770869	-0.507604	-0.270919	-168.253866	44.039871	-61.963928
39716	7678286	985153000	2023	11	20	4	2	15	0	-6.787568	-1.385090	-6.870960	-0.040761	-0.014041	-0.055750	0.002066	-0.003844	0.003635				-0.273313	0.770869	-0.507604	-0.270923	-168.254427	44.040088	-61.964251
39717	7678311	987653000	2023	11	20	4	2	15	0	-6.832613	-1.388830	-6.898025	-0.048587	-0.002956	-0.004843	0.002056	-0.000821	0.006624				-0.273311	0.770865	-0.507610	-0.270924	-168.255160	44.040234	-61.965316
39718	7678336	990153000	2023	11	20	4	2	15	0	-6.845757	-1.401765	-6.885843	-0.042491	0.018114	-0.002387	-0.000817	-0.004125	0.005769	0.427534	-0.072198	-0.330225	-0.273309	0.770862	-0.507612	-0.270931	-168.256097	44.040815	-61.966090
39719	7678361	992653000	2023	11	20	4	2	15	0	-6.841919	-1.416301	-6.892036	-0.026722	0.016312	0.001431	-0.001873	-0.001828	0.003747				-0.273305	0.770862	-0.507613	-0.270935	-168.256974	44.041021	-61.966545
39720	7678386	995153000	2023	11	20	4	2	15	0	-6.836593	-1.403121	-6.882449	-0.038662	0.015365	-0.010945	-0.000378	0.003859	0.002200				-0.273304	0.770862	-0.507615	-0.270932	-168.256974	44.040638	-61.966746
39721	7678411	997653000	2023	11	20	4	2	15	0	-6.838477	-1.402364	-6.886864	-0.039246	0.013126	-0.006639	-0.001310	-0.001661	0.002290				-0.273301	0.770862	-0.507614	-0.270935	-168.257573	44.040778	-61.966922
39722	7678436	153000	2023	11	20	4	2	16	0	-6.890546	-1.389644	-6.903085	-0.066238	0.030591	0.039114	-0.003336	-0.002925	0.002330	0.431910	-0.072569	-0.333169	-0.273297	0.770863	-0.507613	-0.270941	-168.258436	44.041102	-61.967057
39723	7678461	2653000	2023	11	20	4	2	16	0	-6.928269	-1.402816	-6.889983	-0.068901	0.068382	0.058040	0.002731	0.005843	-0.000538				-0.273292	0.770869	-0.507610	-0.270933	-168.258212	44.039878	-61.966413
39724	7678486	5153000	2023	11	20	4	2	16	0	-6.700584	-1.424332	-6.830955	0.019719	-0.027393	-0.138630	0.001050	0.010218	0.001312				-0.273284	0.770873	-0.507614	-0.270923	-168.258678	44.038335	-61.966879
39725	7678511	7653000	2023	11	20	4	2	16	0	-6.689605	-1.447566	-6.845387	0.046995	-0.036551	-0.132707	-0.000334	0.006040	-0.002228				-0.273279	0.770878	-0.507612	-0.270916	-168.258746	44.037269	-61.966493
39726	7678536	10153000	2023	11	20	4	2	16	0	-6.796695	-1.469816	-6.895904	0.038563	0.003436	-0.019452	0.003938	-0.001672	-0.000972	0.430885	-0.069167	-0.332121	-0.273282	0.770879	-0.507610	-0.270915	-168.258154	44.037316	-61.966041
39727	7678561	12653000	2023	11	20	4	2	16	0	-6.854592	-1.474415	-6.926037	0.027524	0.020630	0.042674	0.003067	-0.003405	-0.000322				-0.273285	0.770878	-0.507608	-0.270916	-168.257724	44.037624	-61.965637
39728	7678586	15153000	2023	11	20	4	2	16	0	-6.828660	-1.454391	-6.862304	0.008535	0.041785	-0.023139	0.001902	-0.002521	-0.000289				-0.273294	0.770879	-0.507606	-0.270911	-168.256038	44.037565	-61.964718
39729	7678611	17653000	2023	11	20	4	2	16	0	-6.802917	-1.440490	-6.826762	-0.000391	0.045645	-0.068085	-0.004794	-0.002199	0.002832				-0.273288	0.770879	-0.507605	-0.270917	-168.257194	44.037798	-61.964979
39730	7678636	20153000	2023	11	20	4	2	16	0	-6.847040	-1.426286	-6.882086	-0.020829	0.030372	-0.000553	0.000999	-0.000352	0.002717	0.428465	-0.070196	-0.331647	-0.273286	0.770879	-0.507606	-0.270918	-168.257556	44.037768	-61.965289
39731	7678661	22653000	2023	11	20	4	2	16	0	-6.872244	-1.392489	-6.904757	-0.057816	0.019285	0.027980	0.004236	0.001542	-0.000235				-0.273287	0.770880	-0.507607	-0.270913	-168.257112	44.037389	-61.965111
39732	7678686	25153000	2023	11	20	4	2	16	0	-6.827475	-1.413477	-6.888138	-0.025405	0.009521	-0.011767	0.003364	-0.000080	-0.000112				-0.273283	0.770879	-0.507609	-0.270913	-168.257727	44.037204	-61.965714
39733	7678711	27653000	2023	11	20	4	2	16	0	-6.813045	-1.425778	-6.857864	-0.013334	0.025461	-0.041306	0.005584	-0.002104	0.002200				-0.273287	0.770877	-0.507611	-0.270913	-168.257316	44.037404	-61.965857
39734	7678736	30153000	2023	11	20	4	2	16	0	-6.815663	-1.435597	-6.872910	-0.002632	0.020168	-0.027459	-0.004347	0.000132	0.004979	0.430397	-0.070124	-0.334085	-0.273279	0.770877	-0.507613	-0.270917	-168.258768	44.037373	-61.966636
39735	7678761	32653000	2023	11	20	4	2	16	0	-6.829894	-1.448149	-6.863605	0.003028	0.039803	-0.022282	-0.001119	-0.002433	0.004774				-0.273276	0.770875	-0.507615	-0.270922	-168.259656	44.037701	-61.967267
39736	7678786	35153000	2023	11	20	4	2	16	0	-6.812535	-1.440230	-6.856256	0.000458	0.031243	-0.040674	0.004598	-0.001453	0.002363				-0.273272	0.770874	-0.507617	-0.270925	-168.260513	44.037865	-61.967939
39737	7678811	37653000	2023	11	20	4	2	16	0	-6.796749	-1.434214	-6.875903	0.003117	0.005604	-0.038698	-0.001326	-0.001283	0.002473				-0.273269	0.770874	-0.507617	-0.270928	-168.261145	44.037959	-61.968160
39738	7678836	40153000	2023	11	20	4	2	16	0	-6.813638	-1.416051	-6.870302	-0.020355	0.014266	-0.033556	-0.000983	0.001696	-0.000265	0.428929	-0.069191	-0.332601	-0.273265	0.770877	-0.507616	-0.270927	-168.261447	44.037558	-61.967972
39739	7678861	42653000	2023	11	20	4	2	16	0	-6.816215	-1.432803	-6.882010	-0.004021	0.013576	-0.021075	0.000603	0.004867	0.001868				-0.273260	0.770879	-0.507618	-0.270922	-168.261901	44.036779	-61.968330
39740	7678886	45153000	2023	11	20	4	2	16	0	-6.817555	-1.412100	-6.874582	-0.024901	0.012415	-0.028402	0.001893	-0.002623	0.000852				-0.273265	0.770881	-0.507614	-0.270919	-168.260674	44.036660	-61.967298
39741	7678911	47653000	2023	11	20	4	2	16	0	-6.834690	-1.430606	-6.877288	-0.012813	0.027658	-0.011881	-0.001948	-0.002709	0.005072				-0.273261	0.770879	-0.507615	-0.270924	-168.261708	44.037029	-61.967964
39742	7678936	50153000	2023	11	20	4	2	16	0	-6.813632	-1.431298	-6.882105	-0.004355	0.011361	-0.023028	-0.002362	0.001449	0.003221	0.428494	-0.072150	-0.332174	-0.273255	0.770880	-0.507616	-0.270926	-168.262671	44.036758	-61.968446
39743	7678961	52653000	2023	11	20	4	2	16	0	-6.795429	-1.452290	-6.897947	0.023630	-0.004127	-0.021463	-0.000252	0.001141	0.004750				-0.273250	0.770880	-0.507620	-0.270926	-168.263534	44.036579	-61.969225
39744	7678986	55153000	2023	11	20	4	2	16	0	-6.811500	-1.437539	-6.878029	0.001835	0.014919	-0.026466	-0.001822	-0.002553	0.001321				-0.273245	0.770878	-0.507621	-0.270933	-168.264723	44.036995	-61.969914
39745	7679011	57653000	2023	11	20	4	2	16	0	-6.798960	-1.434650	-6.882816	0.004242	0.002935	-0.032237	-0.006233	0.001859	0.002695				-0.273235	0.770881	-0.507621	-0.270936	-168.266188	44.036655	-61.970326
39746	7679036	60153000	2023	11	20	4	2	16	0	-6.820717	-1.426070	-6.864739	-0.013622	0.026479	-0.031091	-0.001483	0.001100	0.003085	0.430389	-0.070108	-0.335058	-0.273230	0.770881	-0.507622	-0.270937	-168.266994	44.036427	-61.970772
39747	7679061	62653000	2023	11	20	4	2	16	0	-6.810211	-1.433398	-6.884737	-0.000510	0.008178	-0.023247	0.000373	-0.002985	-0.001101				-0.273231	0.770883	-0.507619	-0.270939	-168.266857	44.036654	-61.970239
39748	7679086	65153000	2023	11	20	4	2	16	0	-6.824472	-1.422300	-6.889048	-0.014861	0.010535	-0.011921	-0.001800	-0.002326	0.002972				-0.273228	0.770882	-0.507619	-0.270943	-168.267454	44.036996	-61.970498
39749	7679111	67653000	2023	11	20	4	2	16	0	-6.820683	-1.410231	-6.877384	-0.026383	0.012189	-0.024529	-0.000830	-0.002426	0.002810				-0.273226	0.770881	-0.507619	-0.270947	-168.268035	44.037259	-61.970752
39750	7679136	70153000	2023	11	20	4	2	16	0	-6.827945	-1.423894	-6.888689	-0.014504	0.013500	-0.009529	0.002455	-0.001514	0.004644	0.430413	-0.069207	-0.330174	-0.273226	0.770879	-0.507622	-0.270949	-168.268420	44.037444	-61.971405
39751	7679161	72653000	2023	11	20	4	2	16	0	-6.823415	-1.406830	-6.871632	-0.031313	0.016786	-0.027179	0.003817	-0.000471	0.002813				-0.273227	0.770877	-0.507624	-0.270948	-168.268387	44.037434	-61.971729
39752	7679186	75153000	2023	11	20	4	2	16	0	-6.827765	-1.417801	-6.876521	-0.021740	0.019699	-0.019104	-0.000930	-0.002716	0.001993				-0.273230	0.770874	-0.507626	-0.270953	-168.268466	44.038197	-61.972049
39753	7679211	77653000	2023	11	20	4	2	16	0	-6.821541	-1.410437	-6.882532	-0.025558	0.009020	-0.020278	-0.000389	-0.003862	0.002386				-0.273229	0.770873	-0.507625	-0.270958	-168.268883	44.038650	-61.972158
39754	7679236	80153000	2023	11	20	4	2	16	0	-6.814632	-1.432030	-6.887220	-0.002435	0.008602	-0.018625	0.002132	-0.002451	0.003963	0.427542	-0.073638	-0.332201	-0.273229	0.770870	-0.507627	-0.270960	-168.269193	44.038956	-61.972628
39755	7679261	82653000	2023	11	20	4	2	16	0	-6.811525	-1.422440	-6.879018	-0.011294	0.009256	-0.027958	-0.004753	-0.001091	0.001576				-0.273223	0.770872	-0.507625	-0.270965	-168.270205	44.039000	-61.972689
39756	7679286	85153000	2023	11	20	4	2	16	0	-6.810686	-1.440860	-6.865802	0.004326	0.023959	-0.035154	-0.001495	-0.003701	0.001239				-0.273222	0.770873	-0.507622	-0.270971	-168.270590	44.039521	-61.972478
39757	7679311	87653000	2023	11	20	4	2	16	0	-6.815435	-1.439520	-6.881209	0.003792	0.015859	-0.021205	-0.001609	-0.002015	0.004210				-0.273218	0.770872	-0.507623	-0.270975	-168.271480	44.039762	-61.973016
39758	7679336	90153000	2023	11	20	4	2	16	0	-6.802751	-1.433015	-6.867236	0.000125	0.015494	-0.040807	-0.000896	0.000861	0.004690	0.428938	-0.070156	-0.333594	-0.273213	0.770871	-0.507626	-0.270976	-168.272417	44.039620	-61.973759
39759	7679361	92653000	2023	11	20	4	2	16	0	-6.804919	-1.426367	-6.873436	-0.005798	0.010273	-0.035907	-0.003685	-0.002448	0.001664				-0.273208	0.770872	-0.507624	-0.270982	-168.273246	44.039855	-61.973780
39760	7679386	95153000	2023	11	20	4	2	16	0	-6.815888	-1.416676	-6.862422	-0.019878	0.021705	-0.037448	-0.003298	-0.003766	0.002702				-0.273199	0.770873	-0.507624	-0.270988	-168.274767	44.039914	-61.974271
39761	7679411	97653000	2023	11	20	4	2	16	0	-6.821114	-1.431079	-6.872894	-0.006597	0.022704	-0.024342	-0.004087	-0.000755	0.004571				-0.273192	0.770873	-0.507625	-0.270992	-168.276094	44.039995	-61.974926
39762	7679436	100153000	2023	11	20	4	2	16	0	-6.814326	-1.436366	-6.892023	0.003363	0.006917	-0.014823	-0.003593	-0.000237	0.002607	0.429454	-0.072102	-0.334123	-0.273186	0.770875	-0.507625	-0.270996	-168.277103	44.039950	-61.975223
39763	7679461	102653000	2023	11	20	4	2	16	0	-6.799653	-1.452607	-6.872487	0.020889	0.016578	-0.036402	-0.001097	-0.003041	0.006262				-0.273183	0.770872	-0.507628	-0.271002	-168.278174	44.040402	-61.976120
39764	7679486	105153000	2023	11	20	4	2	16	0	-6.807756	-1.445444	-6.861708	0.010309	0.026829	-0.039403	-0.005987	-0.004220	0.006119				-0.273174	0.770872	-0.507626	-0.271014	-168.279982	44.041140	-61.976543
39765	7679511	107653000	2023	11	20	4	2	16	0	-6.813763	-1.448433	-6.877400	0.013552	0.020678	-0.023745	-0.005543	-0.005250	0.007454				-0.273168	0.770869	-0.507628	-0.271025	-168.281789	44.041940	-61.977583
39766	7679536	110153000	2023	11	20	4	2	16	0	-6.803444	-1.434433	-6.880881	0.004506	0.007149	-0.030512	-0.002645	-0.000481	0.005084	0.430405	-0.069191	-0.331146	-0.273162	0.770868	-0.507630	-0.271029	-168.282994	44.042000	-61.978353
39767	7679561	112653000	2023	11	20	4	2	16	0	-6.818445	-1.428531	-6.890049	-0.004450	0.008370	-0.014494	-0.007117	-0.002037	0.005486				-0.273152	0.770868	-0.507631	-0.271037	-168.284850	44.042284	-61.979151
39768	7679586	115153000	2023	11	20	4	2	16	0	-6.852859	-1.422744	-6.882998	-0.022286	0.033296	0.003624	-0.006315	-0.000052	0.004487				-0.273143	0.770867	-0.507634	-0.271044	-168.286674	44.042417	-61.980302
39769	7679611	117653000	2023	11	20	4	2	16	0	-6.872115	-1.402311	-6.898431	-0.045464	0.028035	0.024894	-0.005601	0.000540	0.005191				-0.273134	0.770868	-0.507636	-0.271048	-168.288340	44.042337	-61.981126
39770	7679636	120153000	2023	11	20	4	2	16	0	-6.811852	-1.422346	-6.866576	-0.010756	0.018863	-0.036503	-0.004499	0.001951	0.007365	0.429933	-0.070180	-0.331165	-0.273124	0.770867	-0.507640	-0.271052	-168.290189	44.042116	-61.982449
39771	7679661	122653000	2023	11	20	4	2	16	0	-6.769586	-1.465930	-6.853312	0.042210	0.015839	-0.068865	0.000020	-0.000367	0.004887				-0.273120	0.770865	-0.507643	-0.271054	-168.290992	44.042148	-61.983192
39772	7679686	125153000	2023	11	20	4	2	16	0	-6.796189	-1.438517	-6.868498	0.010169	0.013101	-0.043678	-0.005041	-0.001469	0.005015				-0.273108	0.770865	-0.507647	-0.271060	-168.293154	44.042105	-61.984497
39773	7679711	127653000	2023	11	20	4	2	16	0	-6.815685	-1.420686	-6.883776	-0.010801	0.008942	-0.021972	-0.003038	0.000075	0.004054				-0.273102	0.770865	-0.507649	-0.271063	-168.294287	44.042060	-61.985085
39774	7679736	130153000	2023	11	20	4	2	16	0	-6.837033	-1.408289	-6.884927	-0.029061	0.017457	-0.008128	-0.003354	-0.003830	0.007906	0.428425	-0.068692	-0.333562	-0.273096	0.770862	-0.507652	-0.271072	-168.295880	44.042669	-61.986266
39775	7679761	132653000	2023	11	20	4	2	16	0	-6.870930	-1.391230	-6.882058	-0.056460	0.035313	0.010933	-0.007282	-0.003637	0.007372				-0.273087	0.770860	-0.507654	-0.271083	-168.297976	44.043237	-61.987367
39776	7679786	135153000	2023	11	20	4	2	16	0	-6.830926	-1.425738	-6.860897	-0.013734	0.036446	-0.026742	-0.004552	0.004435	0.006885				-0.273080	0.770857	-0.507658	-0.271089	-168.299594	44.043536	-61.988597
39777	7679811	137653000	2023	11	20	4	2	16	0	-6.772691	-1.443030	-6.838061	0.019156	0.021229	-0.080782	-0.005287	0.000360	0.010037				-0.273070	0.770855	-0.507665	-0.271095	-168.301867	44.043619	-61.990366
39778	7679836	140153000	2023	11	20	4	2	16	0	-6.786643	-1.447299	-6.878859	0.024286	0.003147	-0.041744	-0.002880	-0.000286	0.008174	0.427978	-0.070678	-0.332628	-0.273062	0.770852	-0.507670	-0.271100	-168.303525	44.043740	-61.991748
39779	7679861	142653000	2023	11	20	4	2	16	0	-6.810287	-1.427642	-6.895190	0.000616	0.000425	-0.016676	-0.006187	0.001799	0.009603				-0.273050	0.770851	-0.507676	-0.271106	-168.305911	44.043612	-61.993488
39780	7679886	145153000	2023	11	20	4	2	16	0	-6.803052	-1.416822	-6.875034	-0.009751	0.006213	-0.037469	-0.003129	-0.002311	0.006882				-0.273042	0.770849	-0.507681	-0.271109	-168.307453	44.043515	-61.994778
39781	7679911	147653000	2023	11	20	4	2	16	0	-6.810427	-1.383561	-6.874601	-0.043039	0.000133	-0.037491	-0.006172	-0.001700	0.005325				-0.273033	0.770849	-0.507682	-0.271116	-168.309158	44.043745	-61.995547
39782	7679936	150153000	2023	11	20	4	2	16	0	-6.893612	-1.364429	-6.887671	-0.086815	0.037500	0.026756	-0.005735	-0.001307	0.007687	0.431410	-0.072078	-0.333643	-0.273024	0.770847	-0.507686	-0.271124	-168.311138	44.043991	-61.996796
39783	7679961	152653000	2023	11	20	4	2	16	0	-6.875479	-1.366407	-6.887555	-0.078800	0.026993	0.014357	-0.004320	0.003334	0.006413				-0.273013	0.770847	-0.507690	-0.271126	-168.312867	44.043555	-61.997976
39784	7679986	155153000	2023	11	20	4	2	16	0	-6.822228	-1.409847	-6.864123	-0.023570	0.024169	-0.032833	-0.002901	0.002473	0.005095				-0.273003	0.770848	-0.507692	-0.271130	-168.314521	44.043357	-61.998783
39785	7680011	157653000	2023	11	20	4	2	16	0	-6.796332	-1.416497	-6.861825	-0.008651	0.011436	-0.051484	-0.006634	-0.004438	0.004259				-0.272996	0.770848	-0.507690	-0.271140	-168.316073	44.043947	-61.999224
39786	7680036	160153000	2023	11	20	4	2	16	0	-6.797250	-1.397993	-6.890543	-0.021976	-0.014020	-0.033324	-0.007173	-0.001048	0.003845	0.427982	-0.071161	-0.333125	-0.272987	0.770850	-0.507690	-0.271146	-168.317742	44.044053	-61.999727
39787	7680061	162653000	2023	11	20	4	2	16	0	-6.824103	-1.445199	-6.872775	0.010593	0.031294	-0.020292	-0.004148	-0.000757	0.006958				-0.272979	0.770848	-0.507693	-0.271152	-168.319403	44.044207	-62.000849
39788	7680086	165153000	2023	11	20	4	2	16	0	-6.815758	-1.401102	-6.861517	-0.029088	0.019100	-0.040439	-0.002645	-0.000688	0.007836				-0.272972	0.770848	-0.507694	-0.271157	-168.320676	44.044236	-62.001495
39789	7680111	167653000	2023	11	20	4	2	16	0	-6.823108	-1.417094	-6.871226	-0.015053	0.022534	-0.026169	-0.006373	0.000267	0.007207				-0.272961	0.770848	-0.507698	-0.271163	-168.322721	44.044250	-62.002714
39790	7680136	170153000	2023	11	20	4	2	16	0	-6.858456	-1.401440	-6.889267	-0.038965	0.027284	0.008827	-0.003417	0.001846	0.005379	0.429942	-0.072094	-0.334125	-0.272952	0.770848	-0.507701	-0.271165	-168.324143	44.043990	-62.003638
39791	7680161	172653000	2023	11	20	4	2	16	0	-6.853184	-1.392915	-6.893478	-0.044500	0.018221	0.006887	-0.003080	0.001358	0.002360				-0.272946	0.770850	-0.507701	-0.271167	-168.325091	44.043716	-62.003949
39792	7680186	175153000	2023	11	20	4	2	16	0	-6.849597	-1.402257	-6.868299	-0.038098	0.037006	-0.011972	-0.004648	0.006420	0.003829				-0.272935	0.770851	-0.507708	-0.271160	-168.326369	44.042454	-62.005208
39793	7680211	177653000	2023	11	20	4	2	16	0	-6.793769	-1.442537	-6.857296	0.016755	0.022938	-0.052671	-0.001240	0.006502	0.006605				-0.272926	0.770851	-0.507714	-0.271157	-168.327767	44.041578	-62.006543
39794	7680236	180153000	2023	11	20	4	2	16	0	-6.786567	-1.440706	-6.882907	0.021035	-0.000081	-0.039914	-0.000076	0.002845	0.001898	0.428974	-0.072126	-0.333148	-0.272921	0.770853	-0.507715	-0.271155	-168.328266	44.041078	-62.006824
39795	7680261	182653000	2023	11	20	4	2	16	0	-6.814970	-1.419738	-6.887625	-0.007052	0.007587	-0.019896	-0.005455	-0.002660	0.004100				-0.272914	0.770853	-0.507715	-0.271163	-168.329682	44.041414	-62.007320
39796	7680286	185153000	2023	11	20	4	2	16	0	-6.818276	-1.418285	-6.881307	-0.010421	0.013662	-0.022256	-0.003904	-0.000909	0.004175				-0.272911	0.770854	-0.507714	-0.271163	-168.330023	44.041298	-62.007305
39797	7680311	187653000	2023	11	20	4	2	16	0	-6.807897	-1.434838	-6.869495	0.006988	0.020950	-0.035381	-0.003466	0.000001	0.005650				-0.272904	0.770854	-0.507717	-0.271168	-168.331432	44.041311	-62.008205
39798	7680336	190153000	2023	11	20	4	2	16	0	-6.813592	-1.438344	-6.881915	0.010141	0.017288	-0.022170	-0.004497	0.002453	0.003148	0.429901	-0.068218	-0.331125	-0.272895	0.770856	-0.507718	-0.271169	-168.332725	44.040899	-62.008723
39799	7680361	192653000	2023	11	20	4	2	16	0	-6.831603	-1.427389	-6.884123	-0.005614	0.023435	-0.009686	-0.000581	-0.001414	0.007769				-0.272890	0.770852	-0.507723	-0.271174	-168.333971	44.041165	-62.009980
39800	7680386	195153000	2023	11	20	4	2	16	0	-6.837127	-1.413891	-6.883816	-0.019684	0.022860	-0.008022	-0.005409	0.000510	0.008634				-0.272876	0.770851	-0.507728	-0.271183	-168.336870	44.041314	-62.011746
39801	7680411	197653000	2023	11	20	4	2	16	0	-6.822517	-1.419530	-6.888181	-0.008853	0.012592	-0.014287	-0.002959	0.002525	0.006209				-0.272867	0.770850	-0.507732	-0.271185	-168.338357	44.040980	-62.012865
39802	7680436	200153000	2023	11	20	4	2	16	0	-6.806827	-1.403143	-6.895257	-0.017685	-0.007876	-0.022595	-0.005163	-0.002420	0.001659	0.428478	-0.071169	-0.332154	-0.272861	0.770852	-0.507730	-0.271191	-168.339401	44.041207	-62.012893
39803	7680461	202653000	2023	11	20	4	2	16	0	-6.812446	-1.403335	-6.880935	-0.021300	0.005769	-0.028742	-0.002620	-0.001448	0.004158				-0.272856	0.770852	-0.507731	-0.271196	-168.340454	44.041380	-62.013438
39804	7680486	205153000	2023	11	20	4	2	16	0	-6.794234	-1.407724	-6.865773	-0.013036	0.006230	-0.051438	-0.004077	-0.000305	0.003976				-0.272852	0.770851	-0.507728	-0.271205	-168.341474	44.042053	-62.013539
39805	7680511	207653000	2023	11	20	4	2	16	0	-6.804111	-1.421209	-6.893787	0.000316	-0.002326	-0.022891	-0.003895	0.001112	0.006137				-0.272843	0.770851	-0.507732	-0.271208	-168.343041	44.041918	-62.014574
39806	7680536	210153000	2023	11	20	4	2	16	0	-6.807354	-1.431408	-6.895276	0.008966	0.002167	-0.018107	-0.000899	0.000971	0.005280	0.430449	-0.072126	-0.331694	-0.272838	0.770850	-0.507735	-0.271210	-168.344061	44.041783	-62.015439
39807	7680561	212653000	2023	11	20	4	2	16	0	-6.821846	-1.437350	-6.889113	0.008911	0.017780	-0.011509	-0.000583	0.001770	0.008047				-0.272831	0.770848	-0.507742	-0.271211	-168.345434	44.041610	-62.016881
39808	7680586	215153000	2023	11	20	4	2	16	0	-6.832765	-1.405164	-6.877884	-0.026230	0.021946	-0.016501	-0.002360	0.002798	0.006238				-0.272824	0.770844	-0.507753	-0.271207	-168.346838	44.040895	-62.018923
39809	7680611	217653000	2023	11	20	4	2	16	0	-6.826450	-1.382011	-6.890073	-0.043715	0.001860	-0.015668	-0.004031	0.002808	0.007445				-0.272814	0.770843	-0.507758	-0.271210	-168.348648	44.040564	-62.020279
39810	7680636	220153000	2023	11	20	4	2	16	0	-6.830624	-1.389693	-6.892054	-0.037633	0.005574	-0.010255	-0.003444	-0.002494	0.002147	0.429945	-0.071153	-0.331672	-0.272809	0.770844	-0.507757	-0.271215	-168.349511	44.040822	-62.020395
39811	7680661	222653000	2023	11	20	4	2	16	0	-6.816194	-1.389692	-6.887074	-0.033357	-0.000240	-0.023794	0.002157	-0.004034	0.006516				-0.272810	0.770840	-0.507761	-0.271220	-168.350121	44.041423	-62.021301
39812	7680686	225153000	2023	11	20	4	2	16	0	-6.840770	-1.391210	-6.875907	-0.041671	0.023832	-0.014350	-0.003693	0.001249	0.003838				-0.272803	0.770842	-0.507757	-0.271226	-168.351216	44.041625	-62.021212
39813	7680711	227653000	2023	11	20	4	2	16	0	-6.802185	-1.414322	-6.899341	-0.003811	-0.009207	-0.021321	0.001029	0.000676	0.005304				-0.272799	0.770840	-0.507761	-0.271227	-168.351957	44.041525	-62.022072
39814	7680736	230153000	2023	11	20	4	2	16	0	-6.810215	-1.407451	-6.886456	-0.014786	0.002557	-0.025806	0.004809	0.000838	0.005180	0.427006	-0.071177	-0.333121	-0.272800	0.770837	-0.507767	-0.271225	-168.352141	44.041400	-62.022910
39815	7680761	232653000	2023	11	20	4	2	16	0	-6.828736	-1.416925	-6.893565	-0.011005	0.012694	-0.006552	-0.001247	0.001251	0.005542				-0.272794	0.770837	-0.507770	-0.271226	-168.353249	44.041231	-62.023831
39816	7680786	235153000	2023	11	20	4	2	16	0	-6.825974	-1.381885	-6.885686	-0.043634	0.004843	-0.019104	-0.002575	0.001740	0.009338				-0.272790	0.770830	-0.507785	-0.271222	-168.354394	44.040744	-62.026290
39817	7680811	237653000	2023	11	20	4	2	16	0	-6.819165	-1.399113	-6.873591	-0.026840	0.014954	-0.029853	-0.003846	0.003830	0.008612				-0.272779	0.770829	-0.507791	-0.271224	-168.356367	44.040306	-62.027918
39818	7680836	240153000	2023	11	20	4	2	16	0	-6.812933	-1.411865	-6.875526	-0.012846	0.013759	-0.030973	0.006402	0.000579	0.003802	0.429502	-0.073622	-0.331235	-0.272781	0.770826	-0.507796	-0.271221	-168.356131	44.040179	-62.028485
39819	7680861	242653000	2023	11	20	4	2	16	0	-6.829457	-1.421516	-6.873742	-0.009691	0.028821	-0.019342	0.003261	0.001536	0.002303				-0.272781	0.770826	-0.507798	-0.271218	-168.356165	44.039871	-62.028796
39820	7680886	245153000	2023	11	20	4	2	16	0	-6.854552	-1.383315	-6.898273	-0.050179	0.014839	0.009832	-0.001206	-0.000882	0.000974				-0.272780	0.770827	-0.507796	-0.271219	-168.356189	44.039895	-62.028523
39821	7680911	247653000	2023	11	20	4	2	16	0	-6.833477	-1.385488	-6.884934	-0.042784	0.011621	-0.013893	0.001656	0.001801	0.007831				-0.272776	0.770824	-0.507803	-0.271219	-168.357215	44.039715	-62.029919
39822	7680936	250153000	2023	11	20	4	2	16	0	-6.842212	-1.392182	-6.892186	-0.038206	0.014293	-0.001745	-0.005504	-0.003609	0.003723	0.430446	-0.072118	-0.332181	-0.272769	0.770824	-0.507802	-0.271227	-168.358561	44.040170	-62.030307
39823	7680961	252653000	2023	11	20	4	2	16	0	-6.844838	-1.409182	-6.894078	-0.023208	0.020436	0.003878	0.001361	0.001099	0.000869				-0.272768	0.770825	-0.507802	-0.271226	-168.358658	44.039882	-62.030311
39824	7680986	255153000	2023	11	20	4	2	16	0	-6.838690	-1.385239	-6.887821	-0.043908	0.012842	-0.008270	-0.002788	-0.001726	0.001181				-0.272755	0.770829	-0.507795	-0.271241	-168.360897	44.040643	-62.030094
39825	7681011	257653000	2023	11	20	4	2	16	0	-6.894423	-1.362981	-6.895468	-0.082719	0.035544	0.032626	0.007071	0.004006	-0.000641				-0.272757	0.770830	-0.507797	-0.271233	-168.360059	44.039904	-62.029927
39826	7681036	260153000	2023	11	20	4	2	16	0	-6.840208	-1.400138	-6.891208	-0.030496	0.016667	-0.002670	0.006463	0.004409	0.002290	0.427974	-0.070670	-0.333115	-0.272758	0.770830	-0.507801	-0.271225	-168.359706	44.039193	-62.030335
39827	7681061	262653000	2023	11	20	4	2	16	0	-6.738985	-1.532264	-6.861377	0.122306	0.017768	-0.074875	0.003261	0.007784	0.000747				-0.272754	0.770832	-0.507804	-0.271216	-168.359704	44.037960	-62.030590
39828	7681086	265153000	2023	11	20	4	2	16	0	-6.791121	-1.472503	-6.858688	0.048421	0.032702	-0.049193	0.002088	0.002152	-0.001027				-0.272760	0.770834	-0.507808	-0.271196	-168.357801	44.036338	-62.030373
39829	7681111	267653000	2023	11	20	4	2	16	0	-6.809244	-1.364903	-6.919746	-0.049267	-0.034386	-0.009215	0.003108	0.000895	0.000135				-0.272760	0.770835	-0.507808	-0.271194	-168.357554	44.036059	-62.030239
39830	7681136	270153000	2023	11	20	4	2	16	0	-6.854263	-1.372473	-6.928431	-0.056044	-0.009428	0.029292	0.001625	-0.003184	0.002073	0.430434	-0.072568	-0.334623	-0.272761	0.770834	-0.507808	-0.271197	-168.357667	44.036408	-62.030317
39831	7681161	272653000	2023	11	20	4	2	16	0	-6.841274	-1.337014	-6.895770	-0.089508	-0.006666	-0.007880	0.005899	0.003269	0.001190				-0.272762	0.770834	-0.507811	-0.271190	-168.357221	44.035829	-62.030476
39832	7681186	275153000	2023	11	20	4	2	16	0	-6.775339	-1.431515	-6.847115	0.013782	0.017098	-0.074260	0.008447	0.007135	0.002787				-0.272763	0.770832	-0.507813	-0.271189	-168.357221	44.035849	-62.030833
39833	7681211	277653000	2023	11	20	4	2	16	0	-6.788920	-1.434451	-6.866320	0.014559	0.013453	-0.050871	0.004066	0.005525	-0.000413				-0.272761	0.770835	-0.507815	-0.271181	-168.356891	44.034900	-62.030789
39834	7681236	280153000	2023	11	20	4	2	16	0	-6.811150	-1.428426	-6.898516	0.005860	0.003149	-0.013623	0.005705	0.003619	-0.000592	0.428978	-0.072134	-0.332662	-0.272763	0.770836	-0.507816	-0.271174	-168.356244	44.034217	-62.030616
39835	7681261	282653000	2023	11	20	4	2	16	0	-6.819005	-1.412025	-6.887080	-0.013567	0.010590	-0.018595	0.002164	0.000500	0.001317				-0.272762	0.770836	-0.507816	-0.271173	-168.356274	44.034033	-62.030690
39836	7681286	285153000	2023	11	20	4	2	16	0	-6.804050	-1.365305	-6.876861	-0.053562	-0.007426	-0.042966	0.003735	-0.001395	0.003720				-0.272764	0.770836	-0.507821	-0.271163	-168.355604	44.033193	-62.030949
39837	7681311	287653000	2023	11	20	4	2	16	0	-6.818603	-1.394475	-6.895266	-0.028865	-0.001265	-0.015657	0.005723	-0.001088	0.000869				-0.272768	0.770835	-0.507821	-0.271161	-168.355015	44.033215	-62.030863
39838	7681336	290153000	2023	11	20	4	2	16	0	-6.833214	-1.380683	-6.879283	-0.048888	0.014665	-0.018759	0.001662	0.001831	0.000230	0.428510	-0.072657	-0.331211	-0.272766	0.770837	-0.507821	-0.271158	-168.355007	44.032810	-62.030784
39839	7681361	292653000	2023	11	20	4	2	16	0	-6.820302	-1.393623	-6.876840	-0.033106	0.012554	-0.027575	0.007372	0.003684	-0.000682				-0.272769	0.770838	-0.507823	-0.271150	-168.354108	44.032114	-62.030598
39840	7681386	295153000	2023	11	20	4	2	16	0	-6.814359	-1.391070	-6.904963	-0.029462	-0.011753	-0.012275	0.007301	0.000223	0.000802				-0.272771	0.770837	-0.507824	-0.271150	-168.353967	44.032285	-62.030675
39841	7681411	297653000	2023	11	20	4	2	16	0	-6.826475	-1.409111	-6.885895	-0.019505	0.015472	-0.014662	0.003362	0.004015	0.000048				-0.272769	0.770839	-0.507825	-0.271144	-168.353753	44.031565	-62.030649
39842	7681436	300153000	2023	11	20	4	2	16	0	-6.766878	-1.429497	-6.869984	0.017009	-0.004436	-0.064331	0.004914	0.003851	-0.005479	0.429434	-0.070638	-0.333606	-0.272771	0.770843	-0.507821	-0.271135	-168.352562	44.030703	-62.029540
39843	7681461	302653000	2023	11	20	4	2	16	0	-6.801539	-1.402562	-6.871124	-0.019583	0.007629	-0.043347	0.004784	-0.000653	-0.001785				-0.272775	0.770844	-0.507819	-0.271132	-168.351768	44.030587	-62.028968
39844	7681486	305153000	2023	11	20	4	2	16	0	-6.806135	-1.407814	-6.882372	-0.014713	0.004271	-0.031469	0.000774	-0.005986	-0.002025				-0.272782	0.770848	-0.507810	-0.271131	-168.350187	44.030783	-62.027153
39845	7681511	307653000	2023	11	20	4	2	16	0	-6.837253	-1.413436	-6.894484	-0.018318	0.017701	-0.000495	0.000732	0.001010	-0.000392				-0.272780	0.770850	-0.507809	-0.271130	-168.350206	44.030473	-62.026918
39846	7681536	310153000	2023	11	20	4	2	16	0	-6.823541	-1.397386	-6.863101	-0.033445	0.025540	-0.034456	0.009391	0.005171	-0.001222	0.430429	-0.071137	-0.332160	-0.272784	0.770851	-0.507811	-0.271118	-168.348993	44.029557	-62.026691
39847	7681561	312653000	2023	11	20	4	2	16	0	-6.817102	-1.430651	-6.874575	0.001394	0.024703	-0.026022	0.003282	0.002905	0.000703				-0.272783	0.770852	-0.507812	-0.271114	-168.348848	44.029014	-62.026750
39848	7681586	315153000	2023	11	20	4	2	16	0	-6.804723	-1.403046	-6.878588	-0.019572	0.004690	-0.035807	0.002711	-0.001037	-0.000091				-0.272787	0.770849	-0.507817	-0.271111	-168.348512	44.028990	-62.027347
39849	7681611	317653000	2023	11	20	4	2	16	0	-6.812418	-1.406194	-6.877552	-0.019618	0.011473	-0.030730	0.006080	0.003266	-0.000952				-0.272789	0.770850	-0.507818	-0.271103	-168.347751	44.028344	-62.027096
39850	7681636	320153000	2023	11	20	4	2	16	0	-6.820069	-1.432307	-6.893693	0.004451	0.014024	-0.010255	-0.001805	0.003082	-0.002229	0.428941	-0.069689	-0.332125	-0.272784	0.770855	-0.507815	-0.271101	-168.347943	44.027687	-62.026583
39851	7681661	322653000	2023	11	20	4	2	16	0	-6.800537	-1.424778	-6.878792	0.001695	0.009259	-0.035416	0.004225	-0.001289	-0.004880				-0.272788	0.770858	-0.507810	-0.271098	-168.346795	44.027573	-62.025383
39852	7681686	325153000	2023	11	20	4	2	16	0	-6.822987	-1.428424	-6.866709	-0.004020	0.033377	-0.027796	0.004932	0.003359	0.001555				-0.272779	0.770862	-0.507807	-0.271101	-168.347980	44.027288	-62.025412
39853	7681711	327653000	2023	11	20	4	2	16	0	-6.800167	-1.433384	-6.860145	0.007274	0.024960	-0.047556	0.005087	-0.001255	-0.001164				-0.272783	0.770862	-0.507806	-0.271098	-168.347213	44.027275	-62.024940
39854	7681736	330153000	2023	11	20	4	2	16	0	-6.824817	-1.433571	-6.880410	0.002036	0.026761	-0.016127	0.001039	0.002039	0.000574	0.429389	-0.068652	-0.335024	-0.272781	0.770864	-0.507806	-0.271096	-168.347350	44.026852	-62.024924
39855	7681761	332653000	2023	11	20	4	2	16	0	-6.827108	-1.438031	-6.875073	0.004706	0.033453	-0.017646	0.000795	0.000823	0.001649				-0.272778	0.770865	-0.507806	-0.271095	-168.347629	44.026628	-62.025076
39856	7681786	335153000	2023	11	20	4	2	16	0	-6.810756	-1.435489	-6.882349	0.008979	0.017187	-0.024254	-0.001016	0.000686	0.002094				-0.272777	0.770862	-0.507810	-0.271096	-168.348142	44.026698	-62.025817
39857	7681811	337653000	2023	11	20	4	2	16	0	-6.804193	-1.429505	-6.878045	0.005079	0.014174	-0.032716	0.000692	0.003124	0.005213				-0.272772	0.770862	-0.507815	-0.271095	-168.348988	44.026254	-62.026756
39858	7681836	340153000	2023	11	20	4	2	16	0	-6.797042	-1.456198	-6.868343	0.031090	0.025333	-0.040643	-0.004026	-0.000641	0.001056	0.430397	-0.070124	-0.334085	-0.272766	0.770864	-0.507813	-0.271098	-168.349836	44.026220	-62.026727
39859	7681861	342653000	2023	11	20	4	2	16	0	-6.801804	-1.437831	-6.860725	0.011194	0.027613	-0.045364	0.002000	0.002813	0.002039				-0.272763	0.770865	-0.507815	-0.271095	-168.350046	44.025726	-62.027034
39860	7681886	345153000	2023	11	20	4	2	16	0	-6.818816	-1.438100	-6.863563	0.006378	0.036494	-0.031505	-0.001611	-0.000820	0.002172				-0.272756	0.770865	-0.507813	-0.271104	-168.351415	44.026169	-62.027246
39861	7681911	347653000	2023	11	20	4	2	16	0	-6.799232	-1.422992	-6.874509	0.000378	0.011657	-0.039600	0.000276	0.005401	0.002243				-0.272750	0.770868	-0.507815	-0.271099	-168.351981	44.025319	-62.027698
39862	7681936	350153000	2023	11	20	4	2	16	0	-6.797239	-1.448177	-6.883271	0.025907	0.013045	-0.031157	-0.005861	0.006197	0.002552	0.429462	-0.072118	-0.333150	-0.272738	0.770872	-0.507816	-0.271098	-168.353487	44.024369	-62.028240
39863	7681961	352653000	2023	11	20	4	2	16	0	-6.806104	-1.414491	-6.889050	-0.007648	0.003314	-0.025816	-0.000171	0.002375	0.002573				-0.272733	0.770873	-0.507818	-0.271097	-168.354076	44.023960	-62.028632
39864	7681986	355153000	2023	11	20	4	2	16	0	-6.816706	-1.401628	-6.889155	-0.023111	0.005894	-0.020245	-0.001459	0.001297	0.001971				-0.272721	0.770876	-0.507821	-0.271092	-168.355412	44.022780	-62.029492
39865	7682011	357653000	2023	11	20	4	2	16	0	-6.822856	-1.388591	-6.874894	-0.039118	0.015518	-0.027906	-0.005756	0.001543	0.002985				-0.272712	0.770878	-0.507821	-0.271095	-168.356833	44.022496	-62.029937
39866	7682036	360153000	2023	11	20	4	2	16	0	-6.833193	-1.400757	-6.881150	-0.030697	0.021670	-0.014552	0.002820	-0.000311	-0.002746	0.429950	-0.072110	-0.333152	-0.272714	0.770881	-0.507818	-0.271093	-168.356200	44.022304	-62.029196
39867	7682061	362653000	2023	11	20	4	2	16	0	-6.803437	-1.409009	-6.883385	-0.012583	0.004065	-0.032459	0.001930	0.000565	0.001755				-0.272712	0.770881	-0.507819	-0.271092	-168.356332	44.022117	-62.029372
39868	7682086	365153000	2023	11	20	4	2	16	0	-6.837119	-1.405197	-6.886005	-0.027195	0.022295	-0.007757	-0.001484	0.002486	0.002385				-0.272721	0.770880	-0.507816	-0.271090	-168.354941	44.022486	-62.028432
39869	7682111	367653000	2023	11	20	4	2	16	0	-6.827758	-1.398633	-6.885241	-0.030077	0.014606	-0.015754	-0.002499	-0.002038	0.003164				-0.272717	0.770880	-0.507816	-0.271095	-168.355819	44.022705	-62.028769
39870	7682136	370153000	2023	11	20	4	2	16	0	-6.849943	-1.400643	-6.897108	-0.033953	0.021514	0.008313	-0.007161	0.005087	0.000811	0.429470	-0.072134	-0.332177	-0.272704	0.770886	-0.507814	-0.271095	-168.357248	44.021856	-62.028939
39871	7682161	372653000	2023	11	20	4	2	16	0	-6.818323	-1.384638	-6.888927	-0.039524	0.001763	-0.021746	0.001793	0.003941	0.000495				-0.272701	0.770888	-0.507815	-0.271090	-168.357315	44.021163	-62.028990
39872	7682186	375153000	2023	11	20	4	2	16	0	-6.819810	-1.393235	-6.892938	-0.031151	0.002967	-0.016642	0.000741	-0.000212	0.002841				-0.272685	0.770890	-0.507819	-0.271094	-168.359805	44.020492	-62.030287
39873	7682211	377653000	2023	11	20	4	2	16	0	-6.801647	-1.400182	-6.879363	-0.020511	0.003406	-0.037813	0.000296	0.003444	0.001854				-0.272680	0.770892	-0.507820	-0.271091	-168.360259	44.019908	-62.030579
39874	7682236	380153000	2023	11	20	4	2	16	0	-6.824052	-1.389937	-6.877165	-0.037993	0.015743	-0.025279	0.001211	0.001965	-0.000414	0.429990	-0.073140	-0.330254	-0.272678	0.770894	-0.507819	-0.271088	-168.360231	44.019459	-62.030376
39875	7682261	382653000	2023	11	20	4	2	16	0	-6.830050	-1.389283	-6.875800	-0.040782	0.020345	-0.022169	-0.001472	0.001011	-0.001119				-0.272674	0.770897	-0.507816	-0.271088	-168.360466	44.019123	-62.029993
39876	7682286	385153000	2023	11	20	4	2	16	0	-6.814730	-1.384248	-6.892729	-0.037911	-0.002975	-0.021621	-0.002035	-0.000411	0.001336				-0.272681	0.770896	-0.507816	-0.271087	-168.359635	44.019500	-62.029698
39877	7682311	387653000	2023	11	20	4	2	16	0	-6.829315	-1.402265	-6.878971	-0.028064	0.022054	-0.018563	0.000931	0.002878	0.001951				-0.272677	0.770897	-0.507818	-0.271084	-168.359994	44.018993	-62.029998
39878	7682336	390153000	2023	11	20	4	2	16	0	-6.828166	-1.419899	-6.893000	-0.009445	0.017507	-0.006924	0.003866	0.002717	-0.000094	0.429478	-0.073099	-0.333170	-0.272677	0.770898	-0.507818	-0.271079	-168.359652	44.018453	-62.029893
39879	7682361	392653000	2023	11	20	4	2	16	0	-6.817138	-1.416114	-6.877264	-0.011702	0.020349	-0.026217	0.004653	0.005683	-0.002457				-0.272677	0.770902	-0.507818	-0.271070	-168.358962	44.017426	-62.029444
39880	7682386	395153000	2023	11	20	4	2	16	0	-6.812078	-1.421147	-6.882597	-0.004631	0.015154	-0.025246	0.004058	0.003747	-0.000390				-0.272678	0.770903	-0.507820	-0.271062	-168.358275	44.016693	-62.029434
39881	7682411	397653000	2023	11	20	4	2	16	0	-6.826782	-1.402036	-6.889403	-0.026499	0.013460	-0.013011	0.002638	0.004014	-0.001054				-0.272677	0.770905	-0.507820	-0.271056	-168.358016	44.015942	-62.029192
39882	7682436	400153000	2023	11	20	4	2	16	0	-6.833769	-1.421032	-6.880995	-0.012587	0.030216	-0.011321	0.006505	0.005322	-0.000964	0.428494	-0.072624	-0.333157	-0.272678	0.770907	-0.507822	-0.271046	-168.357253	44.015009	-62.029025
39883	7682461	402653000	2023	11	20	4	2	16	0	-6.832407	-1.430524	-6.881841	-0.003015	0.032141	-0.010293	-0.002377	0.004118	-0.000343				-0.272671	0.770911	-0.507820	-0.271044	-168.357811	44.014269	-62.028922
39884	7682486	405153000	2023	11	20	4	2	16	0	-6.823111	-1.416773	-6.890445	-0.011694	0.015499	-0.012690	0.004034	-0.000252	-0.001195				-0.272675	0.770913	-0.507820	-0.271037	-168.356791	44.013747	-62.028422
39885	7682511	407653000	2023	11	20	4	2	16	0	-6.830995	-1.411135	-6.875336	-0.021647	0.029302	-0.018673	-0.001629	0.001725	-0.000618				-0.272670	0.770916	-0.507818	-0.271036	-168.357135	44.013330	-62.028167
39886	7682536	410153000	2023	11	20	4	2	16	0	-6.821393	-1.430024	-6.894873	0.001838	0.016114	-0.008842	-0.001350	0.003824	-0.002131	0.427518	-0.072640	-0.333153	-0.272665	0.770921	-0.507815	-0.271033	-168.357296	44.012578	-62.027700
39887	7682561	412653000	2023	11	20	4	2	16	0	-6.813256	-1.403289	-6.890398	-0.020995	0.004952	-0.021529	0.007015	0.000437	-0.000179				-0.272663	0.770923	-0.507811	-0.271034	-168.357369	44.012560	-62.027252
39888	7682586	415153000	2023	11	20	4	2	16	0	-6.825386	-1.395404	-6.882372	-0.033689	0.015734	-0.019899	0.004213	0.003131	-0.002035				-0.272664	0.770926	-0.507810	-0.271028	-168.356725	44.011907	-62.026777
39889	7682611	417653000	2023	11	20	4	2	16	0	-6.810632	-1.402124	-6.884579	-0.022345	0.007237	-0.027618	0.003772	0.005259	-0.003637				-0.272664	0.770930	-0.507809	-0.271019	-168.355986	44.010915	-62.026070
39890	7682636	420153000	2023	11	20	4	2	16	0	-6.830934	-1.416955	-6.885332	-0.015368	0.024473	-0.010830	0.003280	0.000312	-0.004235	0.427054	-0.073171	-0.331216	-0.272666	0.770934	-0.507804	-0.271015	-168.355098	44.010596	-62.025049
39891	7682661	422653000	2023	11	20	4	2	16	0	-6.835842	-1.434091	-6.876630	-0.002198	0.039372	-0.011062	0.001403	-0.001429	-0.000201				-0.272666	0.770935	-0.507802	-0.271016	-168.354979	44.010636	-62.024746
39892	7682686	425153000	2023	11	20	4	2	16	0	-6.831795	-1.428950	-6.875039	-0.006048	0.036034	-0.015742	0.005255	-0.000244	0.000366				-0.272677	0.770933	-0.507801	-0.271012	-168.353371	44.010972	-62.024118
39893	7682711	427653000	2023	11	20	4	2	16	0	-6.815337	-1.423246	-6.875933	-0.005939	0.023023	-0.027376	0.005618	0.000484	-0.004517				-0.272681	0.770936	-0.507798	-0.271007	-168.352112	44.010612	-62.023054
39894	7682736	430153000	2023	11	20	4	2	16	0	-6.802825	-1.415573	-6.876800	-0.008990	0.011818	-0.036572	0.008874	0.000285	-0.004242	0.430438	-0.072102	-0.333153	-0.272689	0.770937	-0.507795	-0.271000	-168.350425	44.010298	-62.022033
39895	7682761	432653000	2023	11	20	4	2	16	0	-6.797324	-1.448417	-6.886596	0.025062	0.012703	-0.028724	-0.002033	0.000630	-0.000702				-0.272685	0.770940	-0.507792	-0.271000	-168.350788	44.010034	-62.021721
39896	7682786	435153000	2023	11	20	4	2	16	0	-6.801208	-1.422537	-6.892404	0.000305	0.002403	-0.025691	0.001020	0.000719	-0.001124				-0.272689	0.770940	-0.507792	-0.270995	-168.349854	44.009791	-62.021339
39897	7682811	437653000	2023	11	20	4	2	16	0	-6.794354	-1.426222	-6.874534	0.003263	0.011742	-0.042505	0.003799	0.001981	-0.004694				-0.272691	0.770945	-0.507788	-0.270989	-168.348878	44.009219	-62.020301
39898	7682836	440153000	2023	11	20	4	2	16	0	-6.801616	-1.431301	-6.884106	0.006965	0.011507	-0.029980	0.000804	0.001999	-0.000718	0.429917	-0.070148	-0.333111	-0.272689	0.770947	-0.507787	-0.270987	-168.348867	44.008762	-62.020036
39899	7682861	442653000	2023	11	20	4	2	16	0	-6.797123	-1.410551	-6.889806	-0.010126	-0.002282	-0.032101	0.002637	0.001099	-0.001261				-0.272689	0.770949	-0.507785	-0.270983	-168.348502	44.008412	-62.019644
39900	7682886	445153000	2023	11	20	4	2	16	0	-6.789057	-1.434518	-6.900137	0.016471	-0.006451	-0.026948	0.004830	0.000628	0.000656				-0.272681	0.770950	-0.507788	-0.270985	-168.349760	44.008083	-62.020419
39901	7682911	447653000	2023	11	20	4	2	16	0	-6.793861	-1.419992	-6.886643	-0.000745	0.001172	-0.035222	0.006365	0.002406	-0.000258				-0.272684	0.770950	-0.507789	-0.270978	-168.349026	44.007582	-62.020258
39902	7682936	450153000	2023	11	20	4	2	16	0	-6.783913	-1.421958	-6.872797	0.002368	0.005124	-0.051603	0.003938	0.000791	-0.003365	0.430974	-0.073140	-0.329284	-0.272686	0.770953	-0.507786	-0.270974	-168.348175	44.007216	-62.019432
39903	7682961	452653000	2023	11	20	4	2	16	0	-6.782959	-1.389929	-6.884071	-0.025443	-0.014033	-0.048978	0.002082	0.000235	0.000902				-0.272686	0.770954	-0.507786	-0.270973	-168.348149	44.007050	-62.019413
39904	7682986	455153000	2023	11	20	4	2	16	0	-6.790071	-1.430455	-6.879686	0.008983	0.007198	-0.041238	0.003204	0.003435	-0.001848				-0.272690	0.770957	-0.507783	-0.270965	-168.346855	44.006489	-62.018449
39905	7683011	457653000	2023	11	20	4	2	16	0	-6.789681	-1.394610	-6.870028	-0.025525	0.001542	-0.053520	-0.000317	-0.001670	-0.001952				-0.272689	0.770959	-0.507779	-0.270967	-168.346738	44.006512	-62.017803
39906	7683036	460153000	2023	11	20	4	2	16	0	-6.815338	-1.379583	-6.908594	-0.042558	-0.014102	-0.010711	-0.002436	-0.004070	0.000449	0.428966	-0.070687	-0.331172	-0.272687	0.770960	-0.507776	-0.270972	-168.347187	44.006942	-62.017532
39907	7683061	462653000	2023	11	20	4	2	16	0	-6.904540	-1.352407	-6.920267	-0.096302	0.025276	0.055538	0.003310	-0.000685	-0.000888				-0.272685	0.770959	-0.507774	-0.270981	-168.348015	44.007680	-62.017702
39908	7683086	465153000	2023	11	20	4	2	16	0	-6.854318	-1.357423	-6.861656	-0.082966	0.035944	-0.019913	-0.000390	0.000917	-0.002424				-0.272683	0.770963	-0.507770	-0.270979	-168.347915	44.007319	-62.017060
39909	7683111	467653000	2023	11	20	4	2	16	0	-6.836982	-1.436510	-6.869933	-0.002436	0.045902	-0.014642	0.004492	0.004972	0.002301				-0.272681	0.770963	-0.507774	-0.270972	-168.347867	44.006528	-62.017510
39910	7683136	470153000	2023	11	20	4	2	16	0	-6.775476	-1.450567	-6.868230	0.031169	0.012569	-0.056525	0.000698	-0.001992	-0.002359	0.429918	-0.070622	-0.334094	-0.272682	0.770966	-0.507770	-0.270973	-168.347539	44.006584	-62.016762
39911	7683161	472653000	2023	11	20	4	2	16	0	-6.799756	-1.415659	-6.889448	-0.006499	0.001491	-0.029782	-0.000253	-0.002359	-0.001684				-0.272681	0.770968	-0.507766	-0.270975	-168.347423	44.006710	-62.016126
39912	7683186	475153000	2023	11	20	4	2	16	0	-6.820901	-1.399784	-6.898556	-0.027316	0.003431	-0.010981	-0.000277	0.001893	-0.001952				-0.272681	0.770973	-0.507762	-0.270968	-168.346635	44.005910	-62.015168
39913	7683211	477653000	2023	11	20	4	2	16	0	-6.812599	-1.372782	-6.883061	-0.051871	-0.000116	-0.031585	0.001743	0.001093	-0.000529				-0.272680	0.770975	-0.507761	-0.270966	-168.346492	44.005587	-62.014897
39914	7683236	480153000	2023	11	20	4	2	16	0	-6.802359	-1.377989	-6.880702	-0.043989	-0.003403	-0.039605	0.006384	-0.002091	0.000798	0.428946	-0.070646	-0.333604	-0.272686	0.770973	-0.507762	-0.270964	-168.345777	44.005745	-62.014772
39915	7683261	482653000	2023	11	20	4	2	16	0	-6.805487	-1.409549	-6.873451	-0.016572	0.014390	-0.037955	-0.001356	0.000373	0.000340				-0.272682	0.770975	-0.507760	-0.270965	-168.346177	44.005547	-62.014657
39916	7683286	485153000	2023	11	20	4	2	16	0	-6.832457	-1.405006	-6.883201	-0.028695	0.023046	-0.013012	0.004271	-0.001383	-0.000204				-0.272690	0.770971	-0.507765	-0.270961	-168.345277	44.005725	-62.015045
39917	7683311	487653000	2023	11	20	4	2	16	0	-6.838411	-1.405710	-6.885560	-0.029888	0.025496	-0.007113	0.004745	0.001369	-0.001861				-0.272692	0.770972	-0.507764	-0.270956	-168.344536	44.005325	-62.014537
39918	7683336	490153000	2023	11	20	4	2	16	0	-6.822416	-1.404797	-6.885400	-0.025112	0.015188	-0.018467	-0.003557	-0.001244	-0.000016	0.428978	-0.072134	-0.332662	-0.272687	0.770975	-0.507760	-0.270960	-168.345156	44.005343	-62.014278
39919	7683361	492653000	2023	11	20	4	2	16	0	-6.822325	-1.400395	-6.881665	-0.029971	0.016169	-0.021801	0.004522	-0.000544	-0.002158				-0.272690	0.770976	-0.507758	-0.270957	-168.344351	44.005203	-62.013630
39920	7683386	495153000	2023	11	20	4	2	16	0	-6.812119	-1.398994	-6.889605	-0.026686	0.003761	-0.023504	0.003994	-0.000629	-0.003074				-0.272684	0.770982	-0.507751	-0.270959	-168.344842	44.004922	-62.012712
39921	7683411	497653000	2023	11	20	4	2	16	0	-6.817037	-1.398469	-6.895231	-0.028189	0.003031	-0.016202	0.003492	0.004794	-0.002144				-0.272683	0.770986	-0.507750	-0.270952	-168.344335	44.004033	-62.012278
39922	7683436	500153000	2023	11	20	4	2	16	0	-6.816921	-1.393251	-6.890382	-0.033795	0.004459	-0.020456	0.004596	0.000363	-0.002621	0.428473	-0.070686	-0.331657	-0.272686	0.770988	-0.507748	-0.270947	-168.343479	44.003749	-62.011581
39923	7683461	502653000	2023	11	20	4	2	16	0	-6.800363	-1.415833	-6.897815	-0.006233	-0.003458	-0.023439	0.001053	0.003538	-0.003636				-0.272684	0.770993	-0.507744	-0.270942	-168.343084	44.002996	-62.010807
39924	7683486	505153000	2023	11	20	4	2	16	0	-6.817484	-1.425406	-6.889783	-0.004450	0.016146	-0.015815	0.003449	0.001328	-0.000496				-0.272692	0.770993	-0.507745	-0.270931	-168.341244	44.002367	-62.010190
39925	7683511	507653000	2023	11	20	4	2	16	0	-6.807354	-1.441115	-6.882431	0.012473	0.020037	-0.025745	0.003199	-0.000647	-0.002030				-0.272694	0.770995	-0.507742	-0.270929	-168.340645	44.002244	-62.009569
39926	7683536	510153000	2023	11	20	4	2	16	0	-6.793313	-1.436656	-6.887012	0.013655	0.006503	-0.032921	0.003829	0.001138	0.000032	0.428442	-0.070147	-0.334565	-0.272695	0.770996	-0.507742	-0.270925	-168.340280	44.001926	-62.009414
39927	7683561	512653000	2023	11	20	4	2	16	0	-6.791522	-1.441828	-6.897401	0.020248	-0.000283	-0.026096	0.010482	-0.000653	-0.002944				-0.272703	0.770994	-0.507744	-0.270919	-168.339011	44.001784	-62.009197
39928	7683586	515153000	2023	11	20	4	2	16	0	-6.813952	-1.451944	-6.897071	0.022062	0.017566	-0.009274	0.003047	-0.002003	-0.003856				-0.272706	0.770997	-0.507739	-0.270918	-168.338146	44.001800	-62.008161
39929	7683611	517653000	2023	11	20	4	2	16	0	-6.791568	-1.434677	-6.867108	0.009097	0.018332	-0.048443	0.007547	-0.000726	-0.003229				-0.272713	0.770998	-0.507737	-0.270913	-168.336756	44.001645	-62.007306
39930	7683636	520153000	2023	11	20	4	2	16	0	-6.799131	-1.441218	-6.889503	0.015934	0.009919	-0.026462	0.001492	0.001312	0.001427	0.428486	-0.072134	-0.333147	-0.272711	0.770998	-0.507738	-0.270911	-168.336915	44.001344	-62.007431
39931	7683661	522653000	2023	11	20	4	2	16	0	-6.832598	-1.438266	-6.876107	-0.000088	0.039616	-0.013082	0.003887	0.003334	0.002147				-0.272710	0.770999	-0.507740	-0.270906	-168.336890	44.000783	-62.007784
39932	7683686	525153000	2023	11	20	4	2	16	0	-6.802955	-1.432143	-6.884114	0.005242	0.013301	-0.028922	0.003885	0.004543	-0.000872				-0.272706	0.771001	-0.507742	-0.270901	-168.337027	44.000025	-62.007924
39933	7683711	527653000	2023	11	20	4	2	16	0	-6.792517	-1.432257	-6.877232	0.008200	0.011497	-0.041004	-0.003785	-0.000760	0.001489				-0.272700	0.771003	-0.507740	-0.270905	-168.337899	44.000021	-62.007979
39934	7683736	530153000	2023	11	20	4	2	16	0	-6.804922	-1.434534	-6.892192	0.008080	0.009700	-0.021515	0.001971	-0.000277	-0.000411	0.429450	-0.071145	-0.332643	-0.272701	0.771004	-0.507739	-0.270904	-168.337706	43.999887	-62.007698
39935	7683761	532653000	2023	11	20	4	2	16	0	-6.782337	-1.403762	-6.881823	-0.014274	-0.007649	-0.048985	-0.001781	0.000448	0.000974				-0.272696	0.771006	-0.507738	-0.270905	-168.338252	43.999694	-62.007701
39936	7683786	535153000	2023	11	20	4	2	16	0	-6.810179	-1.425451	-6.889645	-0.002595	0.011705	-0.020981	0.003424	-0.001179	-0.001760				-0.272701	0.771007	-0.507733	-0.270904	-168.337275	43.999864	-62.006701
39937	7683811	537653000	2023	11	20	4	2	16	0	-6.823406	-1.427981	-6.882558	-0.005723	0.026125	-0.016417	0.002529	0.003890	0.001375				-0.272698	0.771009	-0.507735	-0.270899	-168.337356	43.999202	-62.006927
39938	7683836	540153000	2023	11	20	4	2	16	0	-6.811091	-1.426497	-6.887692	-0.002289	0.014289	-0.021570	0.002328	0.002975	0.000066	0.430389	-0.069633	-0.334075	-0.272697	0.771011	-0.507736	-0.270895	-168.337264	43.998628	-62.006861
39939	7683861	542653000	2023	11	20	4	2	16	0	-6.799814	-1.418536	-6.894588	-0.004914	-0.000303	-0.025702	0.004298	0.002279	0.003367				-0.272696	0.771009	-0.507739	-0.270891	-168.337314	43.998250	-62.007406
39940	7683886	545153000	2023	11	20	4	2	16	0	-6.810504	-1.399928	-6.890771	-0.026352	0.003033	-0.023671	-0.000097	0.001199	0.000968				-0.272691	0.771011	-0.507741	-0.270887	-168.337755	43.997540	-62.007702
39941	7683911	547653000	2023	11	20	4	2	16	0	-6.823900	-1.400678	-6.883562	-0.031199	0.016571	-0.019334	0.002100	-0.004436	-0.000274				-0.272694	0.771011	-0.507739	-0.270890	-168.337436	43.997999	-62.007258
39942	7683936	550153000	2023	11	20	4	2	16	0	-6.830606	-1.390477	-6.885715	-0.042896	0.016201	-0.014646	0.003628	0.004644	-0.001702	0.427506	-0.071193	-0.331664	-0.272693	0.771014	-0.507738	-0.270883	-168.336967	43.997146	-62.006913
39943	7683961	552653000	2023	11	20	4	2	16	0	-6.805788	-1.399484	-6.893002	-0.024951	-0.001817	-0.025438	0.002735	-0.003023	0.001898				-0.272695	0.771013	-0.507738	-0.270885	-168.336899	43.997472	-62.006954
39944	7683986	555153000	2023	11	20	4	2	16	0	-6.803355	-1.393544	-6.881293	-0.031409	0.002798	-0.036246	0.002330	-0.001854	0.000282				-0.272697	0.771014	-0.507737	-0.270882	-168.336332	43.997323	-62.006526
39945	7684011	557653000	2023	11	20	4	2	16	0	-6.813894	-1.396024	-6.896736	-0.030370	-0.000232	-0.017684	-0.000972	0.001278	0.002561				-0.272692	0.771015	-0.507738	-0.270883	-168.337004	43.997062	-62.006875
39946	7684036	560153000	2023	11	20	4	2	16	0	-6.817792	-1.407933	-6.898977	-0.020332	0.004672	-0.011667	0.001530	0.000394	0.001546	0.428498	-0.072158	-0.331687	-0.272691	0.771015	-0.507738	-0.270882	-168.337155	43.996888	-62.006994
39947	7684061	562653000	2023	11	20	4	2	16	0	-6.794339	-1.423220	-6.883657	-0.000622	0.005499	-0.036529	0.006280	0.000597	-0.002296				-0.272695	0.771016	-0.507737	-0.270877	-168.336108	43.996580	-62.006368
39948	7684086	565153000	2023	11	20	4	2	16	0	-6.811921	-1.422069	-6.879556	-0.008090	0.019005	-0.027369	0.004277	-0.001203	-0.001147				-0.272698	0.771014	-0.507736	-0.270881	-168.336059	43.997303	-62.006350
39949	7684111	567653000	2023	11	20	4	2	16	0	-6.812493	-1.430172	-6.879042	-0.000818	0.022524	-0.026156	0.002053	0.000349	-0.000377				-0.272698	0.771016	-0.507735	-0.270880	-168.335872	43.997087	-62.006084
39950	7684136	570153000	2023	11	20	4	2	16	0	-6.816640	-1.435413	-6.885405	0.003550	0.022308	-0.018029	0.002866	-0.003836	-0.000724	0.430409	-0.069199	-0.330660	-0.272702	0.771016	-0.507733	-0.270881	-168.335405	43.997450	-62.005586
39951	7684161	572653000	2023	11	20	4	2	16	0	-6.824410	-1.413885	-6.870069	-0.021235	0.030868	-0.026569	-0.000039	0.000773	0.000488				-0.272699	0.771017	-0.507732	-0.270881	-168.335645	43.997199	-62.005504
39952	7684186	575153000	2023	11	20	4	2	16	0	-6.818954	-1.441366	-6.881901	0.007793	0.028068	-0.018024	0.004838	-0.003384	0.001685				-0.272708	0.771014	-0.507729	-0.270884	-168.334629	43.998129	-62.004942
39953	7684211	577653000	2023	11	20	4	2	16	0	-6.811094	-1.435730	-6.882396	0.005259	0.020811	-0.023957	0.000628	-0.003234	-0.002015				-0.272709	0.771016	-0.507725	-0.270886	-168.334326	43.998369	-62.004214
39954	7684236	580153000	2023	11	20	4	2	16	0	-6.793527	-1.414621	-6.878421	-0.009206	0.005396	-0.042029	0.005860	0.001023	-0.000395	0.428474	-0.071161	-0.332640	-0.272712	0.771016	-0.507725	-0.270882	-168.333613	43.998059	-62.003977
39955	7684261	582653000	2023	11	20	4	2	16	0	-6.819499	-1.412556	-6.875956	-0.020402	0.023020	-0.026027	0.007161	0.003595	0.000397				-0.272715	0.771017	-0.507728	-0.270874	-168.332893	43.997411	-62.003997
39956	7684286	585153000	2023	11	20	4	2	16	0	-6.816341	-1.425184	-6.887193	-0.005942	0.017450	-0.018466	0.003389	-0.000921	0.002620				-0.272715	0.771016	-0.507733	-0.270867	-168.332647	43.996811	-62.004553
39957	7684311	587653000	2023	11	20	4	2	16	0	-6.795350	-1.459770	-6.875431	0.031494	0.023907	-0.036301	0.005991	0.000551	0.000197				-0.272719	0.771015	-0.507734	-0.270863	-168.331976	43.996584	-62.004414
39958	7684336	590153000	2023	11	20	4	2	16	0	-6.782919	-1.434456	-6.885543	0.013664	0.000458	-0.041493	0.002830	-0.001292	0.002230	0.431910	-0.072095	-0.332186	-0.272719	0.771014	-0.507735	-0.270863	-168.331991	43.996675	-62.004599
39959	7684361	592653000	2023	11	20	4	2	16	0	-6.804347	-1.418094	-6.882599	-0.009395	0.010607	-0.031065	0.005025	-0.000152	-0.000782				-0.272722	0.771015	-0.507734	-0.270860	-168.331310	43.996518	-62.004239
39960	7684386	595153000	2023	11	20	4	2	16	0	-6.817742	-1.442240	-6.876425	0.007914	0.031519	-0.022597	0.001559	-0.000817	0.001661				-0.272720	0.771013	-0.507735	-0.270865	-168.332170	43.996961	-62.004792
39961	7684411	597653000	2023	11	20	4	2	16	0	-6.789423	-1.431887	-6.881732	0.008530	0.006465	-0.040034	0.000332	0.001175	-0.000609				-0.272717	0.771015	-0.507734	-0.270864	-168.332217	43.996627	-62.004512
39962	7684436	600153000	2023	11	20	4	2	16	0	-6.792571	-1.434721	-6.880507	0.009852	0.010215	-0.038300	0.004909	0.000200	0.001345	0.429974	-0.073582	-0.333182	-0.272719	0.771015	-0.507735	-0.270861	-168.331849	43.996477	-62.004581
39963	7684461	602653000	2023	11	20	4	2	16	0	-6.810333	-1.432053	-6.890852	0.003012	0.013309	-0.019063	-0.000268	-0.003889	0.001583				-0.272719	0.771014	-0.507734	-0.270866	-168.332145	43.996913	-62.004533
39964	7684486	605153000	2023	11	20	4	2	16	0	-6.821928	-1.418587	-6.884357	-0.014341	0.020605	-0.017542	0.000841	-0.004196	0.002439				-0.272721	0.771013	-0.507734	-0.270867	-168.332004	43.997215	-62.004547
39965	7684511	607653000	2023	11	20	4	2	16	0	-6.815314	-1.418071	-6.865920	-0.015100	0.029181	-0.035201	0.001622	-0.000258	0.005562				-0.272719	0.771010	-0.507738	-0.270868	-168.332665	43.997252	-62.005421
39966	7684536	610153000	2023	11	20	4	2	16	0	-6.824617	-1.432320	-6.881865	-0.002424	0.028777	-0.015434	-0.003883	-0.003129	0.006064	0.427526	-0.072657	-0.332181	-0.272713	0.771008	-0.507740	-0.270876	-168.334104	43.997709	-62.006276
39967	7684561	612653000	2023	11	20	4	2	16	0	-6.829810	-1.421992	-6.877110	-0.014674	0.031953	-0.016679	0.001796	0.000178	0.000877				-0.272712	0.771009	-0.507740	-0.270875	-168.334118	43.997556	-62.006251
39968	7684586	615153000	2023	11	20	4	2	16	0	-6.807372	-1.420149	-6.873838	-0.008921	0.019537	-0.034835	-0.002018	0.001923	0.001626				-0.272699	0.771010	-0.507740	-0.270885	-168.336641	43.997828	-62.007240
39969	7684611	617653000	2023	11	20	4	2	16	0	-6.822802	-1.422326	-6.881942	-0.011075	0.024356	-0.018090	0.003279	0.000099	0.000984				-0.272699	0.771010	-0.507741	-0.270884	-168.336457	43.997683	-62.007242
39970	7684636	620153000	2023	11	20	4	2	16	0	-6.812100	-1.426458	-6.904578	-0.000319	0.003201	-0.008976	0.001251	-0.001109	0.002701	0.429422	-0.070614	-0.335065	-0.272698	0.771009	-0.507742	-0.270885	-168.336765	43.997760	-62.007528
39971	7684661	622653000	2023	11	20	4	2	16	0	-6.820745	-1.411556	-6.877549	-0.020709	0.022616	-0.024182	-0.003226	-0.000262	0.003801				-0.272692	0.771010	-0.507743	-0.270888	-168.337882	43.997750	-62.008061
39972	7684686	625153000	2023	11	20	4	2	16	0	-6.830324	-1.404320	-6.872453	-0.031646	0.029843	-0.022172	-0.000001	0.000788	0.000753				-0.272694	0.771012	-0.507742	-0.270882	-168.337028	43.997159	-62.007504
39973	7684711	627653000	2023	11	20	4	2	16	0	-6.824128	-1.406047	-6.882895	-0.026156	0.019203	-0.018866	-0.005123	-0.003062	0.003365				-0.272688	0.771012	-0.507741	-0.270889	-168.338276	43.997532	-62.007825
39974	7684736	630153000	2023	11	20	4	2	16	0	-6.818707	-1.384864	-6.913644	-0.039751	-0.012652	-0.004048	0.000148	0.000352	0.003754	0.431401	-0.071113	-0.332650	-0.272685	0.771012	-0.507743	-0.270890	-168.338920	43.997437	-62.008362
39975	7684761	632653000	2023	11	20	4	2	16	0	-6.815309	-1.442076	-6.896688	0.012386	0.016244	-0.010036	-0.000855	-0.000063	0.004674				-0.272680	0.771011	-0.507746	-0.270892	-168.339824	43.997428	-62.009072
39976	7684786	635153000	2023	11	20	4	2	16	0	-6.781059	-1.459005	-6.852550	0.033450	0.030844	-0.062465	0.000795	-0.001600	0.000665				-0.272677	0.771011	-0.507746	-0.270893	-168.340252	43.997357	-62.009257
39977	7684811	637653000	2023	11	20	4	2	16	0	-6.809491	-1.438680	-6.878236	0.008557	0.024161	-0.027575	0.001768	-0.002295	0.000917				-0.272678	0.771011	-0.507745	-0.270895	-168.340212	43.997547	-62.009150
39978	7684836	640153000	2023	11	20	4	2	16	0	-6.825521	-1.434498	-6.896627	0.001985	0.020237	-0.004091	-0.002562	-0.001258	0.001296	0.428938	-0.071105	-0.335560	-0.272674	0.771012	-0.507743	-0.270898	-168.340870	43.997602	-62.009152
39979	7684861	642653000	2023	11	20	4	2	16	0	-6.794219	-1.399482	-6.905186	-0.018746	-0.017254	-0.024893	-0.000127	0.000692	0.004718				-0.272670	0.771011	-0.507747	-0.270899	-168.341696	43.997490	-62.009896
39980	7684886	645153000	2023	11	20	4	2	16	0	-6.791504	-1.438125	-6.883237	0.015238	0.009344	-0.036626	-0.002263	0.000791	0.005680				-0.272662	0.771012	-0.507746	-0.270905	-168.342977	43.997580	-62.010308
39981	7684911	647653000	2023	11	20	4	2	16	0	-6.760062	-1.435400	-6.874959	0.022152	-0.006012	-0.064696	0.004915	-0.003611	0.006362				-0.272665	0.771007	-0.507751	-0.270907	-168.343185	43.998107	-62.011211
39982	7684936	650153000	2023	11	20	4	2	16	0	-6.806494	-1.432631	-6.894651	0.006627	0.008693	-0.018971	0.005522	-0.004971	0.002950	0.426534	-0.072165	-0.333140	-0.272671	0.771003	-0.507753	-0.270909	-168.342810	43.998732	-62.011391
39983	7684961	652653000	2023	11	20	4	2	16	0	-6.807311	-1.362948	-6.893036	-0.058645	-0.013002	-0.029669	-0.000994	-0.003184	0.000115				-0.272669	0.771004	-0.507750	-0.270913	-168.343028	43.999023	-62.011083
39984	7684986	655153000	2023	11	20	4	2	16	0	-6.838271	-1.367704	-6.892193	-0.065078	0.008930	-0.008066	0.002035	0.003944	-0.001641				-0.272677	0.771002	-0.507752	-0.270907	-168.341743	43.998863	-62.010915
39985	7685011	657653000	2023	11	20	4	2	16	0	-6.833708	-1.383384	-6.877419	-0.050777	0.021352	-0.019364	0.000095	-0.004347	0.002409				-0.272677	0.771001	-0.507751	-0.270912	-168.342086	43.999385	-62.011012
39986	7685036	660153000	2023	11	20	4	2	16	0	-6.824108	-1.388668	-6.872775	-0.043322	0.020184	-0.028539	0.001081	-0.003876	-0.000213	0.428978	-0.073083	-0.334628	-0.272678	0.771001	-0.507748	-0.270915	-168.341946	43.999767	-62.010619
39987	7685061	662653000	2023	11	20	4	2	16	0	-6.818035	-1.405906	-6.890064	-0.022664	0.010128	-0.018068	0.000729	-0.002283	0.003586				-0.272677	0.771000	-0.507750	-0.270918	-168.342414	44.000031	-62.011027
39988	7685086	665153000	2023	11	20	4	2	16	0	-6.812634	-1.401523	-6.893140	-0.024554	0.003083	-0.020290	0.002260	-0.002015	0.000679				-0.272675	0.771003	-0.507745	-0.270920	-168.342514	43.999992	-62.010320
39989	7685111	667653000	2023	11	20	4	2	16	0	-6.800327	-1.423166	-6.880652	-0.001966	0.011077	-0.034492	0.001410	-0.004673	0.000177				-0.272677	0.771003	-0.507743	-0.270923	-168.342357	44.000493	-62.009974
39990	7685136	670153000	2023	11	20	4	2	16	0	-6.813547	-1.434715	-6.862408	0.001829	0.036025	-0.036481	-0.001746	-0.004205	-0.000796	0.429417	-0.068708	-0.331620	-0.272676	0.771004	-0.507738	-0.270928	-168.342533	44.000905	-62.009452
39991	7685161	672653000	2023	11	20	4	2	16	0	-6.820755	-1.423127	-6.878562	-0.008903	0.025561	-0.021778	-0.004537	-0.002621	0.002048				-0.272671	0.771005	-0.507736	-0.270934	-168.343545	44.001177	-62.009555
39992	7685186	675153000	2023	11	20	4	2	16	0	-6.809443	-1.394068	-6.888083	-0.030963	0.002249	-0.027152	0.000153	0.004425	-0.000477				-0.272664	0.771010	-0.507734	-0.270932	-168.344055	44.000458	-62.009320
39993	7685211	677653000	2023	11	20	4	2	16	0	-6.829670	-1.419663	-6.865107	-0.017218	0.039489	-0.025567	0.001661	-0.001802	-0.001086				-0.272665	0.771011	-0.507732	-0.270932	-168.343770	44.000527	-62.008836
39994	7685236	680153000	2023	11	20	4	2	16	0	-6.803702	-1.434533	-6.881445	0.007650	0.016679	-0.029935	0.002759	0.000211	0.000442	0.429417	-0.070132	-0.334569	-0.272665	0.771012	-0.507732	-0.270931	-168.343588	44.000352	-62.008730
39995	7685261	682653000	2023	11	20	4	2	16	0	-6.808971	-1.419328	-6.906382	-0.004810	-0.002415	-0.010916	0.002336	0.000035	-0.000305				-0.272665	0.771013	-0.507730	-0.270929	-168.343364	44.000179	-62.008475
39996	7685286	685153000	2023	11	20	4	2	16	0	-6.809767	-1.427406	-6.873507	-0.002214	0.023770	-0.032351	-0.000665	-0.000511	-0.000340				-0.272665	0.771014	-0.507733	-0.270923	-168.343172	43.999535	-62.008604
39997	7685311	687653000	2023	11	20	4	2	16	0	-6.791560	-1.424627	-6.872980	0.001146	0.011563	-0.045773	0.003416	-0.001156	-0.001003				-0.272667	0.771015	-0.507731	-0.270922	-168.342664	43.999508	-62.008159
39998	7685336	690153000	2023	11	20	4	2	16	0	-6.816947	-1.393983	-6.888245	-0.033558	0.006699	-0.021835	-0.002436	-0.004773	0.000525	0.429421	-0.068717	-0.331133	-0.272665	0.771015	-0.507727	-0.270928	-168.343102	44.000035	-62.007877
39999	7685361	692653000	2023	11	20	4	2	16	0	-6.817147	-1.403917	-6.880085	-0.025511	0.016021	-0.026004	-0.001808	0.000563	0.001598				-0.272661	0.771017	-0.507727	-0.270929	-168.343737	43.999843	-62.008005
40000	7685386	695153000	2023	11	20	4	2	16	0	-6.801128	-1.426316	-6.881508	0.001082	0.012406	-0.032874	-0.000665	0.001796	0.002088				-0.272654	0.771018	-0.507724	-0.270937	-168.344912	44.000229	-62.008122
40001	7685411	697653000	2023	11	20	4	2	16	0	-6.789581	-1.420555	-6.887437	0.000598	-0.000969	-0.037556	-0.002690	-0.000450	0.002321				-0.272649	0.771019	-0.507724	-0.270940	-168.345750	44.000201	-62.008358
40002	7685436	700153000	2023	11	20	4	2	16	0	-6.788574	-1.429214	-6.897145	0.010202	-0.005442	-0.030158	0.000820	0.000482	-0.001390	0.428494	-0.072150	-0.332174	-0.272648	0.771022	-0.507721	-0.270939	-168.345603	43.999935	-62.007898
40003	7685461	702653000	2023	11	20	4	2	16	0	-6.801070	-1.407147	-6.885673	-0.016203	0.003018	-0.032765	0.001922	-0.000954	-0.000893				-0.272649	0.771023	-0.507719	-0.270938	-168.345327	43.999889	-62.007478
40004	7685486	705153000	2023	11	20	4	2	16	0	-6.809052	-1.409633	-6.887142	-0.016438	0.007966	-0.025827	0.001452	-0.001556	0.001083				-0.272649	0.771024	-0.507720	-0.270931	-168.344823	43.999224	-62.007329
40005	7685511	707653000	2023	11	20	4	2	16	0	-6.810893	-1.431265	-6.879896	0.002097	0.021577	-0.026508	0.000090	0.001041	0.002069				-0.272646	0.771025	-0.507721	-0.270931	-168.345269	43.998981	-62.007571
40006	7685536	710153000	2023	11	20	4	2	16	0	-6.807441	-1.412878	-6.892076	-0.011877	0.004906	-0.022997	-0.004210	0.001358	0.004964	0.429994	-0.074097	-0.331733	-0.272637	0.771026	-0.507723	-0.270934	-168.346731	43.998784	-62.008387
40007	7685561	712653000	2023	11	20	4	2	16	0	-6.800982	-1.418523	-6.873518	-0.007138	0.015518	-0.039736	0.001550	-0.000702	0.002722				-0.272636	0.771025	-0.507725	-0.270935	-168.347006	43.998804	-62.008681
40008	7685586	715153000	2023	11	20	4	2	16	0	-6.790559	-1.406300	-6.888004	-0.012670	-0.005140	-0.038547	-0.002730	-0.000776	0.000737				-0.272624	0.771025	-0.507727	-0.270942	-168.349243	43.998881	-62.009895
40009	7685611	717653000	2023	11	20	4	2	16	0	-6.821328	-1.407204	-6.882612	-0.022855	0.018636	-0.020840	-0.002448	0.001854	0.003926				-0.272617	0.771025	-0.507729	-0.270944	-168.350328	43.998580	-62.010537
40010	7685636	720153000	2023	11	20	4	2	16	0	-6.801705	-1.424123	-6.887879	0.000062	0.008300	-0.028303	0.002197	0.004081	0.000732	0.430926	-0.073518	-0.336104	-0.272615	0.771027	-0.507731	-0.270939	-168.350375	43.997871	-62.010642
40011	7685661	722653000	2023	11	20	4	2	16	0	-6.818643	-1.422266	-6.878127	-0.008436	0.025266	-0.023678	-0.001326	0.000552	0.006852				-0.272608	0.771025	-0.507735	-0.270941	-168.351656	43.997836	-62.011798
40012	7685686	725153000	2023	11	20	4	2	16	0	-6.812042	-1.433954	-6.875041	0.003939	0.026998	-0.028740	0.001470	-0.002277	0.000914				-0.272615	0.771027	-0.507734	-0.270935	-168.350249	43.997557	-62.010986
40013	7685711	727653000	2023	11	20	4	2	16	0	-6.804285	-1.399763	-6.881046	-0.024252	0.006266	-0.034865	0.002504	-0.005069	0.004866				-0.272617	0.771023	-0.507736	-0.270940	-168.350558	43.998254	-62.011533
40014	7685736	730153000	2023	11	20	4	2	16	0	-6.813551	-1.415077	-6.896801	-0.010800	0.006583	-0.015102	-0.001308	0.000872	0.004781	0.428433	-0.069182	-0.333572	-0.272611	0.771022	-0.507739	-0.270942	-168.351568	43.998117	-62.012298
40015	7685761	732653000	2023	11	20	4	2	16	0	-6.821146	-1.387278	-6.884204	-0.041029	0.010662	-0.022739	0.001094	-0.003287	0.001582				-0.272612	0.771021	-0.507738	-0.270945	-168.351682	43.998467	-62.012278
40016	7685786	735153000	2023	11	20	4	2	16	0	-6.813756	-1.404027	-6.881960	-0.023158	0.013248	-0.027020	-0.000100	0.000431	-0.000297				-0.272607	0.771021	-0.507738	-0.270951	-168.352779	43.998851	-62.012709
40017	7685811	737653000	2023	11	20	4	2	16	0	-6.805775	-1.400272	-6.873316	-0.025217	0.012858	-0.039200	0.004926	-0.000675	0.002625				-0.272609	0.771019	-0.507740	-0.270950	-168.352562	43.998866	-62.012998
40018	7685836	740153000	2023	11	20	4	2	16	0	-6.823601	-1.421434	-6.885184	-0.009815	0.023155	-0.015382	0.000284	0.000859	0.001334	0.428958	-0.071145	-0.333128	-0.272606	0.771020	-0.507741	-0.270949	-168.352871	43.998627	-62.013085
40019	7685861	742653000	2023	11	20	4	2	16	0	-6.826924	-1.405753	-6.876316	-0.026663	0.026178	-0.021599	-0.002731	-0.001094	0.000658				-0.272602	0.771022	-0.507738	-0.270952	-168.353472	43.998643	-62.012967
40020	7685886	745153000	2023	11	20	4	2	16	0	-6.802797	-1.419991	-6.871573	-0.005957	0.019074	-0.039637	-0.003484	0.001621	0.001084				-0.272598	0.771026	-0.507735	-0.270951	-168.353636	43.998204	-62.012431
40021	7685911	747653000	2023	11	20	4	2	16	0	-6.815012	-1.432188	-6.880903	0.002634	0.024356	-0.022807	-0.002199	-0.001836	0.000154				-0.272595	0.771028	-0.507732	-0.270954	-168.354068	43.998308	-62.012192
40022	7685936	750153000	2023	11	20	4	2	16	0	-6.818396	-1.422241	-6.865533	-0.010043	0.033782	-0.032731	0.002665	-0.001803	-0.000244	0.428942	-0.070638	-0.334091	-0.272597	0.771028	-0.507730	-0.270954	-168.353749	43.998395	-62.011875
40023	7685961	752653000	2023	11	20	4	2	16	0	-6.814021	-1.423143	-6.857596	-0.008987	0.036847	-0.041231	0.002512	-0.000301	-0.002973				-0.272598	0.771031	-0.507727	-0.270952	-168.353124	43.998194	-62.011078
40024	7685986	755153000	2023	11	20	4	2	16	0	-6.790559	-1.425952	-6.883505	0.005239	0.004785	-0.038861	0.000801	-0.001021	-0.000289				-0.272602	0.771031	-0.507723	-0.270953	-168.352470	43.998555	-62.010359
40025	7686011	757653000	2023	11	20	4	2	16	0	-6.826481	-1.405187	-6.898098	-0.024260	0.010605	-0.006643	0.003607	0.002474	0.001096				-0.272602	0.771032	-0.507725	-0.270949	-168.352322	43.998081	-62.010472
40026	7686036	760153000	2023	11	20	4	2	16	0	-6.811227	-1.400352	-6.887890	-0.025063	0.006312	-0.025135	0.003143	-0.000718	0.000326	0.428002	-0.072150	-0.332659	-0.272603	0.771032	-0.507724	-0.270948	-168.352046	43.998034	-62.010305
40027	7686061	762653000	2023	11	20	4	2	16	0	-6.803608	-1.426588	-6.885113	0.001516	0.012106	-0.028573	0.003771	-0.002654	0.000390				-0.272606	0.771032	-0.507724	-0.270948	-168.351636	43.998267	-62.010070
40028	7686086	765153000	2023	11	20	4	2	16	0	-6.799859	-1.408521	-6.893150	-0.012963	-0.001902	-0.028138	0.002875	-0.001240	-0.000814				-0.272608	0.771032	-0.507723	-0.270947	-168.351290	43.998161	-62.009861
40029	7686111	767653000	2023	11	20	4	2	16	0	-6.828408	-1.417166	-6.888308	-0.015044	0.022728	-0.010463	-0.001809	0.001825	0.003419				-0.272601	0.771033	-0.507725	-0.270947	-168.352211	43.997843	-62.010406
40030	7686136	770153000	2023	11	20	4	2	16	0	-6.806170	-1.403359	-6.892789	-0.019795	0.000718	-0.024757	0.001401	-0.001770	0.001227	0.429921	-0.069682	-0.331641	-0.272601	0.771033	-0.507724	-0.270948	-168.352275	43.997971	-62.010367
40031	7686161	772653000	2023	11	20	4	2	16	0	-6.814775	-1.400951	-6.885524	-0.025954	0.010568	-0.024250	-0.001176	0.000898	0.000017				-0.272598	0.771035	-0.507723	-0.270948	-168.352619	43.997689	-62.010205
40032	7686186	775153000	2023	11	20	4	2	16	0	-6.816162	-1.403117	-6.895610	-0.023029	0.004985	-0.015867	0.004003	-0.002199	-0.000109				-0.272600	0.771034	-0.507722	-0.270950	-168.352471	43.998036	-62.010073
40033	7686211	777653000	2023	11	20	4	2	16	0	-6.812626	-1.413921	-6.891491	-0.012418	0.009196	-0.019655	0.003230	-0.001988	-0.001152				-0.272602	0.771035	-0.507719	-0.270950	-168.351947	43.998126	-62.009568
40034	7686236	780153000	2023	11	20	4	2	16	0	-6.815089	-1.411247	-6.891218	-0.015662	0.010147	-0.018526	-0.001441	-0.000794	-0.000007	0.429437	-0.070646	-0.333120	-0.272599	0.771037	-0.507717	-0.270952	-168.352280	43.998079	-62.009332
40035	7686261	782653000	2023	11	20	4	2	16	0	-6.816950	-1.427804	-6.900827	0.000552	0.010176	-0.008059	-0.001976	-0.002258	0.000166				-0.272597	0.771039	-0.507714	-0.270955	-168.352668	43.998244	-62.009070
40036	7686286	785153000	2023	11	20	4	2	16	0	-6.814528	-1.423355	-6.890613	-0.004123	0.014186	-0.017582	-0.000033	-0.003836	0.001610				-0.272594	0.771040	-0.507711	-0.270960	-168.353193	43.998554	-62.008800
40037	7686311	787653000	2023	11	20	4	2	16	0	-6.817442	-1.424333	-6.887031	-0.004749	0.019109	-0.017940	-0.000393	0.002678	0.001229				-0.272589	0.771042	-0.507711	-0.270958	-168.353632	43.998054	-62.008939
40038	7686336	790153000	2023	11	20	4	2	16	0	-6.819129	-1.423639	-6.884205	-0.006222	0.021802	-0.018859	-0.002682	-0.002654	0.000445	0.429442	-0.071129	-0.333616	-0.272586	0.771044	-0.507708	-0.270963	-168.354151	43.998283	-62.008717
40039	7686361	792653000	2023	11	20	4	2	16	0	-6.838505	-1.432216	-6.888796	-0.003989	0.033777	-0.000919	-0.001928	-0.003155	0.002933				-0.272583	0.771043	-0.507708	-0.270968	-168.354888	43.998658	-62.008956
40040	7686386	795153000	2023	11	20	4	2	16	0	-6.817108	-1.408226	-6.890623	-0.018894	0.010877	-0.017980	0.001787	-0.000106	0.001388				-0.272582	0.771042	-0.507708	-0.270970	-168.355190	43.998850	-62.009133
40041	7686411	797653000	2023	11	20	4	2	16	0	-6.809519	-1.434152	-6.886973	0.007430	0.017277	-0.022059	-0.001542	-0.002295	0.001668				-0.272580	0.771043	-0.507707	-0.270974	-168.355723	43.999061	-62.009169
40042	7686436	800153000	2023	11	20	4	2	16	0	-6.819096	-1.423113	-6.886064	-0.006244	0.020320	-0.017651	0.003823	0.000004	0.004297	0.429925	-0.070638	-0.333121	-0.272580	0.771040	-0.507711	-0.270973	-168.355910	43.999028	-62.009805
40043	7686461	802653000	2023	11	20	4	2	16	0	-6.814971	-1.408429	-6.895848	-0.017275	0.005973	-0.015755	0.005361	0.000852	0.001527				-0.272582	0.771040	-0.507713	-0.270970	-168.355524	43.998796	-62.009931
40044	7686486	805153000	2023	11	20	4	2	16	0	-6.798649	-1.392191	-6.882094	-0.028814	-0.000294	-0.039142	0.004258	-0.000651	0.003263				-0.272587	0.771034	-0.507722	-0.270964	-168.355148	43.998606	-62.011202
40045	7686511	807653000	2023	11	20	4	2	16	0	-6.817368	-1.410647	-6.888721	-0.017026	0.013315	-0.018788	0.001087	0.001494	0.001367				-0.272584	0.771035	-0.507723	-0.270962	-168.355372	43.998280	-62.011339
40046	7686536	810153000	2023	11	20	4	2	16	0	-6.809379	-1.396305	-6.886527	-0.027816	0.005182	-0.027966	-0.004724	0.003055	0.001844	0.430429	-0.070663	-0.331177	-0.272575	0.771038	-0.507723	-0.270963	-168.356534	43.997747	-62.011620
40047	7686561	812653000	2023	11	20	4	2	16	0	-6.802419	-1.396090	-6.875864	-0.027344	0.008112	-0.040345	0.003437	0.002960	0.001714				-0.272574	0.771039	-0.507725	-0.270958	-168.356503	43.997228	-62.011863
40048	7686586	815153000	2023	11	20	4	2	16	0	-6.797103	-1.422562	-6.899227	0.002507	-0.002744	-0.023730	0.001644	-0.004505	-0.000529				-0.272567	0.771044	-0.507718	-0.270963	-168.357186	43.997229	-62.011021
40049	7686611	817653000	2023	11	20	4	2	16	0	-6.822035	-1.413094	-6.899343	-0.014618	0.009962	-0.007705	0.001589	-0.000471	0.003781				-0.272566	0.771043	-0.507720	-0.270964	-168.357605	43.997247	-62.011543
40050	7686636	820153000	2023	11	20	4	2	16	0	-6.828414	-1.409902	-6.889340	-0.021337	0.019834	-0.010786	0.004349	-0.000688	-0.000598	0.429901	-0.068692	-0.332108	-0.272568	0.771043	-0.507720	-0.270962	-168.357030	43.997166	-62.011198
40051	7686661	822653000	2023	11	20	4	2	16	0	-6.794847	-1.415364	-6.891750	-0.004415	-0.001161	-0.031610	0.000062	0.001336	0.003371				-0.272564	0.771043	-0.507722	-0.270962	-168.357668	43.996924	-62.011707
40052	7686686	825153000	2023	11	20	4	2	16	0	-6.818566	-1.432819	-6.884676	0.002570	0.024439	-0.017587	0.001634	-0.000730	-0.000851				-0.272577	0.771041	-0.507719	-0.270958	-168.355737	43.997333	-62.010749
40053	7686711	827653000	2023	11	20	4	2	16	0	-6.820402	-1.425222	-6.890960	-0.004151	0.018742	-0.012988	-0.000754	-0.000450	0.000418				-0.272574	0.771043	-0.507718	-0.270959	-168.356041	43.997248	-62.010617
40054	7686736	830153000	2023	11	20	4	2	16	0	-6.828050	-1.423381	-6.894698	-0.007996	0.020447	-0.005308	0.000296	0.000910	-0.001018	0.428458	-0.071128	-0.334585	-0.272572	0.771046	-0.507716	-0.270958	-168.356039	43.996937	-62.010250
40055	7686761	832653000	2023	11	20	4	2	16	0	-6.832622	-1.420699	-6.881508	-0.014036	0.031632	-0.011815	0.005820	0.001741	0.001060				-0.272574	0.771045	-0.507718	-0.270953	-168.355549	43.996570	-62.010326
40056	7686786	835153000	2023	11	20	4	2	16	0	-6.827396	-1.420116	-6.906439	-0.009144	0.010682	0.002038	0.002397	-0.003567	0.001050				-0.272572	0.771046	-0.507715	-0.270956	-168.355953	43.996748	-62.010165
40057	7686811	837653000	2023	11	20	4	2	16	0	-6.839850	-1.418569	-6.884271	-0.017791	0.033530	-0.005154	0.002002	-0.002000	0.004690				-0.272571	0.771044	-0.507718	-0.270959	-168.356396	43.997010	-62.010794
40058	7686836	840153000	2023	11	20	4	2	16	0	-6.820604	-1.416736	-6.872546	-0.014572	0.028777	-0.027050	-0.000645	-0.003684	0.001840	0.427966	-0.070180	-0.333104	-0.272570	0.771043	-0.507717	-0.270963	-168.356784	43.997423	-62.010809
40059	7686861	842653000	2023	11	20	4	2	16	0	-6.827660	-1.385700	-6.875676	-0.045337	0.020769	-0.024451	-0.003055	-0.000998	0.000476				-0.272565	0.771046	-0.507715	-0.270966	-168.357407	43.997418	-62.010659
40060	7686886	845153000	2023	11	20	4	2	16	0	-6.828919	-1.401685	-6.878424	-0.030569	0.025007	-0.019321	0.002601	0.001945	-0.000077				-0.272566	0.771044	-0.507715	-0.270969	-168.357618	43.997753	-62.010904
40061	7686911	847653000	2023	11	20	4	2	16	0	-6.823643	-1.392035	-6.893226	-0.035576	0.008128	-0.013957	-0.001864	-0.000590	-0.000711				-0.272563	0.771046	-0.507712	-0.270971	-168.357922	43.997662	-62.010542
40062	7686936	850153000	2023	11	20	4	2	16	0	-6.816380	-1.416687	-6.886130	-0.011214	0.016775	-0.020423	-0.000450	0.000223	-0.000684	0.429470	-0.072609	-0.333160	-0.272560	0.771049	-0.507710	-0.270971	-168.358046	43.997450	-62.010219
40063	7686961	852653000	2023	11	20	4	2	16	0	-6.816644	-1.423771	-6.877073	-0.006190	0.025627	-0.025593	0.003187	0.001169	-0.002778				-0.272561	0.771052	-0.507707	-0.270967	-168.357397	43.997050	-62.009530
40064	7686986	855153000	2023	11	20	4	2	16	0	-6.822166	-1.420859	-6.879745	-0.010417	0.026430	-0.020300	0.001455	0.000890	-0.000130				-0.272559	0.771056	-0.507706	-0.270960	-168.357095	43.996174	-62.009030
40065	7687011	857653000	2023	11	20	4	2	16	0	-6.810556	-1.420435	-6.876323	-0.007473	0.021214	-0.030834	0.003754	-0.000760	-0.000910				-0.272561	0.771057	-0.507704	-0.270958	-168.356563	43.996104	-62.008615
40066	7687036	860153000	2023	11	20	4	2	16	0	-6.792139	-1.399835	-6.884399	-0.019295	-0.003048	-0.040928	0.001099	-0.001690	-0.002140	0.430466	-0.073582	-0.332698	-0.272562	0.771059	-0.507700	-0.270959	-168.356220	43.996127	-62.007931
40067	7687061	862653000	2023	11	20	4	2	16	0	-6.819934	-1.419669	-6.876378	-0.011301	0.026883	-0.024391	-0.000405	-0.001237	-0.000723				-0.272561	0.771061	-0.507698	-0.270960	-168.356293	43.996128	-62.007531
40068	7687086	865153000	2023	11	20	4	2	16	0	-6.817792	-1.408653	-6.897541	-0.017950	0.007138	-0.012570	0.004890	0.002191	0.003297				-0.272564	0.771059	-0.507700	-0.270956	-168.355791	43.996006	-62.007737
40069	7687111	867653000	2023	11	20	4	2	16	0	-6.824507	-1.417862	-6.893501	-0.012182	0.017273	-0.009416	0.001391	-0.000617	0.000783				-0.272563	0.771060	-0.507699	-0.270956	-168.355822	43.995958	-62.007653
40070	7687136	870153000	2023	11	20	4	2	16	0	-6.820780	-1.406005	-6.875246	-0.024674	0.023350	-0.026587	0.006204	-0.004682	-0.000930	0.431906	-0.072087	-0.332672	-0.272571	0.771058	-0.507698	-0.270957	-168.354830	43.996428	-62.007086
40071	7687161	872653000	2023	11	20	4	2	16	0	-6.818031	-1.412318	-6.880180	-0.017181	0.020447	-0.024106	0.003346	0.000257	0.000704				-0.272571	0.771058	-0.507698	-0.270955	-168.354606	43.996255	-62.007045
40072	7687186	875153000	2023	11	20	4	2	16	0	-6.825847	-1.391667	-6.889269	-0.037869	0.012200	-0.015269	0.003081	0.003254	0.000650				-0.272576	0.771056	-0.507701	-0.270950	-168.353845	43.996157	-62.007210
40073	7687211	877653000	2023	11	20	4	2	16	0	-6.816011	-1.408638	-6.891350	-0.018714	0.009998	-0.018168	0.006738	-0.001125	-0.003754				-0.272583	0.771058	-0.507698	-0.270946	-168.352487	43.996051	-62.006228
40074	7687236	880153000	2023	11	20	4	2	16	0	-6.808968	-1.420720	-6.866081	-0.008659	0.027134	-0.039110	0.006624	-0.000945	0.000646	0.430405	-0.070140	-0.333113	-0.272588	0.771057	-0.507699	-0.270943	-168.351749	43.996052	-62.006108
40075	7687261	882653000	2023	11	20	4	2	16	0	-6.815426	-1.418598	-6.888761	-0.009723	0.014925	-0.018952	0.003503	0.002920	-0.001070				-0.272587	0.771059	-0.507698	-0.270937	-168.351335	43.995453	-62.005818
40076	7687286	885153000	2023	11	20	4	2	16	0	-6.811921	-1.411475	-6.882195	-0.016028	0.014957	-0.027051	-0.000830	0.000056	-0.001599				-0.272583	0.771062	-0.507698	-0.270934	-168.351669	43.994795	-62.005825
40077	7687311	887653000	2023	11	20	4	2	16	0	-6.811391	-1.398932	-6.877777	-0.028050	0.013516	-0.032353	-0.001326	-0.000423	0.000805				-0.272579	0.771063	-0.507697	-0.270936	-168.352101	43.994723	-62.005761
40078	7687336	890153000	2023	11	20	4	2	16	0	-6.801992	-1.392127	-6.879964	-0.030884	0.003478	-0.038328	0.003595	-0.005428	0.002185	0.429881	-0.069127	-0.335523	-0.272583	0.771061	-0.507697	-0.270939	-168.351880	43.995392	-62.005766
40079	7687361	892653000	2023	11	20	4	2	16	0	-6.821741	-1.421615	-6.885465	-0.009313	0.022036	-0.016452	0.001036	-0.004926	-0.000176				-0.272585	0.771060	-0.507694	-0.270943	-168.351720	43.995921	-62.005327
40080	7687386	895153000	2023	11	20	4	2	16	0	-6.820345	-1.410348	-6.882710	-0.019700	0.019395	-0.021001	0.000773	0.001232	-0.001003				-0.272583	0.771061	-0.507691	-0.270948	-168.352180	43.996262	-62.005136
40081	7687411	897653000	2023	11	20	4	2	16	0	-6.810276	-1.424612	-6.891452	-0.001716	0.011694	-0.019763	0.001387	-0.000478	0.002036				-0.272582	0.771061	-0.507692	-0.270949	-168.352384	43.996226	-62.005307
40082	7687436	900153000	2023	11	20	4	2	16	0	-6.811099	-1.408896	-6.898387	-0.015753	0.002096	-0.016588	0.004584	-0.000006	0.001324	0.428457	-0.069705	-0.331636	-0.272584	0.771060	-0.507693	-0.270946	-168.352053	43.996109	-62.005365
40083	7687461	902653000	2023	11	20	4	2	16	0	-6.806305	-1.412530	-6.884348	-0.012755	0.010052	-0.029281	0.002133	-0.000225	-0.000367				-0.272584	0.771062	-0.507692	-0.270945	-168.351840	43.995971	-62.005082
40084	7687486	905153000	2023	11	20	4	2	16	0	-6.805690	-1.422426	-6.877735	-0.004414	0.017663	-0.032931	0.005504	-0.000089	0.001561				-0.272585	0.771062	-0.507695	-0.270936	-168.351325	43.995132	-62.005278
40085	7687511	907653000	2023	11	20	4	2	16	0	-6.803271	-1.421610	-6.890035	-0.002613	0.007430	-0.026064	0.002129	0.001823	0.001279				-0.272583	0.771063	-0.507696	-0.270934	-168.351395	43.994758	-62.005407
40086	7687536	910153000	2023	11	20	4	2	16	0	-6.797354	-1.438632	-6.892006	0.015371	0.008106	-0.026311	0.004069	0.003263	0.000506	0.427986	-0.071169	-0.332638	-0.272583	0.771064	-0.507698	-0.270928	-168.351125	43.994157	-62.005444
40087	7687561	912653000	2023	11	20	4	2	16	0	-6.797689	-1.447772	-6.881450	0.022507	0.018746	-0.032189	-0.002313	-0.000590	0.001895				-0.272578	0.771065	-0.507697	-0.270931	-168.351844	43.994139	-62.005579
40088	7687586	915153000	2023	11	20	4	2	16	0	-6.787984	-1.429438	-6.877779	0.008013	0.009043	-0.044181	0.002231	0.000381	-0.000504				-0.272576	0.771068	-0.507696	-0.270926	-168.351679	43.993465	-62.005277
40089	7687611	917653000	2023	11	20	4	2	16	0	-6.794147	-1.422084	-6.882241	-0.000211	0.007576	-0.037823	-0.001523	0.002607	0.000500				-0.272571	0.771071	-0.507695	-0.270925	-168.352186	43.992961	-62.005275
40090	7687636	920153000	2023	11	20	4	2	16	0	-6.823118	-1.419042	-6.888649	-0.012160	0.020540	-0.013628	0.005545	0.003750	0.000111	0.427502	-0.072134	-0.334116	-0.272572	0.771072	-0.507697	-0.270918	-168.351655	43.992282	-62.005239
40091	7687661	922653000	2023	11	20	4	2	16	0	-6.789939	-1.406114	-6.900653	-0.011174	-0.013283	-0.030092	0.001790	-0.000538	0.002273				-0.272572	0.771071	-0.507698	-0.270916	-168.351597	43.992227	-62.005440
40092	7687686	925153000	2023	11	20	4	2	16	0	-6.806461	-1.400731	-6.895231	-0.022390	-0.000748	-0.023220	-0.001705	-0.000460	0.002595				-0.272568	0.771072	-0.507698	-0.270919	-168.352331	43.992206	-62.005734
40093	7687711	927653000	2023	11	20	4	2	16	0	-6.810887	-1.400097	-6.882621	-0.026461	0.010545	-0.029124	0.004918	-0.000305	0.000306				-0.272571	0.771072	-0.507699	-0.270916	-168.351807	43.992098	-62.005579
